// General information: 
//  MT Manager version: 2021.4.0 
//  XDA version: 2021.4.0 build 6323 rev 112641 built on 2021-09-28
// Device information: 
//  DeviceId: 00B4A3CC
//  ProductCode: MTW2-3A7G6
//  Firmware Version: 4.6.0
//  Hardware Version: 2.0.0
// Device settings: 
//  Filter Profile: human(46.1)
//  Option Flags: Orientation Smoother Disabled, Position/Velocity Smoother Disabled, Continuous Zero Rotation Update Disabled, AHS Disabled, ICC Disabled
// Coordinate system: ENU
PacketCounter	SampleTimeFine	Year	Month	Day	Second	Acc_X	Acc_Y	Acc_Z	FreeAcc_E	FreeAcc_N	FreeAcc_U	Gyr_X	Gyr_Y	Gyr_Z	Quat_q0	Quat_q1	Quat_q2	Quat_q3	Roll	Pitch	Yaw	Mat[1][1]	Mat[2][1]	Mat[3][1]	Mat[1][2]	Mat[2][2]	Mat[3][2]	Mat[1][3]	Mat[2][3]	Mat[3][3]	GyrTemp_X	GyrTemp_Y	GyrTemp_Z
65109						-9.797044	0.068697	0.023153	-0.180857	-0.164733	-0.018430	0.009445	-0.056379	0.031553	0.576027	0.425728	0.567987	-0.405388	104.428588	88.227765	32.432418	0.026103	0.016586	-0.999522	0.950645	0.308832	0.029951	0.309181	-0.950972	-0.007706			
65110						-9.786496	-0.041640	-0.171710	-0.350395	-0.009945	-0.030876	0.055485	-0.051796	0.032823	0.576113	0.425893	0.567671	-0.405534	103.491089	88.214063	31.463587	0.026583	0.016267	-0.999514	0.950802	0.308314	0.030305	0.308657	-0.951146	-0.007271			
65111						-9.762136	-0.065913	0.002047	-0.323732	-0.178255	-0.057326	0.121086	-0.050701	0.030875	0.576079	0.426207	0.567219	-0.405886	102.489652	88.203618	30.395363	0.027039	0.015861	-0.999509	0.951150	0.307209	0.030606	0.307543	-0.951510	-0.006779			
65112						-9.817604	0.229372	0.170807	0.003355	-0.246662	0.005983	0.162232	-0.037141	0.026730	0.575884	0.426692	0.566741	-0.406320	101.923863	88.190649	29.737226	0.027416	0.015661	-0.999501	0.951634	0.305675	0.030893	0.306007	-0.952007	-0.006524			
65113						-9.792047	0.689225	0.122246	0.423774	-0.058525	-0.004979	0.150727	-0.026717	0.024521	0.575712	0.427088	0.566376	-0.406657	101.573883	88.179809	29.313668	0.027696	0.015551	-0.999495	0.952019	0.304452	0.031117	0.304783	-0.952401	-0.006373			
65114						-9.775971	0.978571	0.085385	0.685624	0.064827	-0.011656	0.069423	-0.019584	0.022451	0.575655	0.427329	0.566147	-0.406803	101.293800	88.166979	28.994599	0.027978	0.015505	-0.999488	0.952218	0.303803	0.031367	0.304134	-0.952609	-0.006264			
65115						-9.711491	0.949836	0.104555	0.663578	0.039474	-0.076966	-0.012221	-0.017541	0.008890	0.575755	0.427297	0.566102	-0.406758	100.971652	88.161032	28.680119	0.028153	0.015401	-0.999485	0.952173	0.303931	0.031504	0.304260	-0.952570	-0.006108			
65116						-9.701142	0.720640	0.182252	0.468320	-0.102626	-0.094928	-0.073672	-0.022461	-0.003541	0.575960	0.427046	0.566211	-0.406580	100.652454	88.163029	28.403943	0.028197	0.015248	-0.999486	0.951944	0.304649	0.031503	0.304973	-0.952343	-0.005926			
65117						-9.743016	0.480424	-0.040542	0.171418	0.039317	-0.059335	-0.090208	-0.033337	-0.006541	0.576299	0.426525	0.566451	-0.406313	100.106884	88.178114	27.937677	0.028087	0.014895	-0.999494	0.951525	0.305974	0.031299	0.306285	-0.951923	-0.005579			
65118						-9.858873	0.292631	-0.275362	-0.083208	0.206982	0.051848	-0.045936	-0.043066	-0.006933	0.576496	0.426302	0.566451	-0.406267	99.444034	88.183911	27.301829	0.028161	0.014536	-0.999498	0.951380	0.306428	0.031262	0.306729	-0.951783	-0.005200			
65119						-9.883987	0.127287	-0.431121	-0.291067	0.308474	0.072422	0.007123	-0.050500	0.002446	0.576621	0.426289	0.566240	-0.406398	98.515957	88.181922	26.361889	0.028427	0.014088	-0.999497	0.951438	0.306237	0.031376	0.306525	-0.951851	-0.004698			
65120						-9.821436	0.209506	-0.309117	-0.174938	0.222611	0.011767	0.050098	-0.053117	-0.008175	0.576639	0.426319	0.566018	-0.406649	97.724573	88.188642	25.542379	0.028520	0.013629	-0.999500	0.951588	0.305778	0.031322	0.306052	-0.952005	-0.004249			
65121						-9.855528	0.338988	-0.224722	-0.028511	0.187150	0.049412	0.035041	-0.063361	-0.014207	0.576701	0.426338	0.565712	-0.406966	96.543082	88.195314	24.327251	0.028696	0.012973	-0.999504	0.951765	0.305229	0.031287	0.305484	-0.952191	-0.003589			
65122						-9.950133	0.546537	-0.121607	0.197252	0.157020	0.149996	-0.011013	-0.067757	-0.016900	0.576873	0.426137	0.565591	-0.407101	95.452596	88.206905	23.243503	0.028751	0.012348	-0.999510	0.951730	0.305352	0.031149	0.305587	-0.952160	-0.002973			
65123						-9.925846	0.528008	0.006965	0.219894	0.037417	0.124692	-0.091398	-0.080066	-0.025611	0.577279	0.425549	0.565667	-0.407035	93.974617	88.229117	21.831349	0.028687	0.011492	-0.999522	0.951384	0.306461	0.030828	0.306669	-0.951814	-0.002142			
65124						-9.842943	0.456367	-0.000660	0.151543	0.032158	0.039612	-0.121200	-0.087406	-0.028396	0.577717	0.424958	0.565738	-0.406933	92.427999	88.246265	20.354462	0.028693	0.010645	-0.999532	0.951014	0.307633	0.030576	0.307815	-0.951445	-0.001296			
65125						-9.933434	0.420890	-0.021678	0.108348	0.050319	0.128965	-0.129684	-0.091516	-0.035248	0.578187	0.424316	0.565786	-0.406869	90.595055	88.265463	18.592454	0.028689	0.009651	-0.999542	0.950636	0.308828	0.030267	0.308978	-0.951069	-0.000314			
65126						-9.980559	0.329559	0.044563	0.041004	-0.031783	0.173276	-0.105924	-0.092771	-0.036677	0.578591	0.423734	0.565827	-0.406845	88.890460	88.284572	16.948784	0.028635	0.008727	-0.999552	0.950313	0.309854	0.029930	0.309977	-0.950744	0.000580			
65127						-10.038240	0.372582	0.216175	0.134211	-0.170766	0.232442	-0.094723	-0.101871	-0.032872	0.579048	0.423084	0.565831	-0.406864	86.764226	88.304645	14.885843	0.028592	0.007600	-0.999562	0.949976	0.310923	0.029538	0.311011	-0.950405	0.001670			
65128						-10.074348	0.248747	0.325797	0.049589	-0.303384	0.265308	-0.090204	-0.101134	-0.031189	0.579452	0.422545	0.565804	-0.406886	84.838640	88.316844	13.012122	0.028618	0.006613	-0.999569	0.949698	0.311798	0.029253	0.311857	-0.950125	0.002642			
65129						-10.153828	0.282028	0.497418	0.131215	-0.445106	0.346635	-0.103385	-0.120973	-0.032025	0.579934	0.421985	0.565683	-0.406949	82.424835	88.321328	10.648146	0.028790	0.005413	-0.999571	0.949427	0.312643	0.029039	0.312666	-0.949855	0.003862			
65130						-10.067629	0.252681	0.202553	0.012005	-0.160829	0.258857	-0.120299	-0.138842	-0.015455	0.580540	0.421326	0.565574	-0.406919	79.765055	88.316686	8.057156	0.029085	0.004117	-0.999568	0.949048	0.313802	0.028908	0.313786	-0.949480	0.005220			
65131						-9.930858	0.083734	0.025719	-0.202770	-0.031170	0.116437	-0.140336	-0.148735	-0.005856	0.581278	0.420522	0.565503	-0.406796	76.834827	88.305606	5.219500	0.029446	0.002690	-0.999563	0.948536	0.315356	0.028791	0.315296	-0.948969	0.006734			
65132						-9.880399	-0.074016	-0.121680	-0.401783	0.072592	0.060298	-0.149350	-0.150894	-0.003101	0.582003	0.419788	0.565391	-0.406673	74.057223	88.284934	2.527279	0.029900	0.001320	-0.999552	0.948059	0.316790	0.028778	0.316686	-0.948495	0.008221			
65133						-9.947304	-0.108211	-0.087219	-0.430195	0.043806	0.126184	-0.146125	-0.158805	-0.010302	0.582742	0.419039	0.565210	-0.406639	70.999117	88.259926	-0.452936	0.030364	-0.000240	-0.999539	0.947622	0.318102	0.028711	0.317948	-0.948057	0.009886			
65134						-10.087588	-0.096228	-0.038606	-0.411953	0.016713	0.267004	-0.154555	-0.171316	-0.011882	0.583516	0.418223	0.565066	-0.406568	67.962889	88.231645	-3.401000	0.030804	-0.001831	-0.999524	0.947127	0.319583	0.028604	0.319378	-0.947557	0.011578			
65135						-10.286443	-0.129213	-0.021652	-0.447137	0.008277	0.464863	-0.140715	-0.185358	-0.015046	0.584355	0.417247	0.564949	-0.406530	64.541519	88.203577	-6.721468	0.031133	-0.003669	-0.999509	0.946562	0.321277	0.028304	0.321015	-0.946978	0.013475			
65136						-10.432461	-0.153670	-0.052026	-0.490387	0.048585	0.609389	-0.100963	-0.211666	-0.002256	0.585150	0.416531	0.564557	-0.406665	61.200884	88.149667	-10.004886	0.031798	-0.005610	-0.999479	0.946232	0.322250	0.028295	0.321923	-0.946638	0.015555			
65137						-10.545869	-0.270531	0.023210	-0.586495	-0.037973	0.720290	-0.042986	-0.234764	0.001560	0.585955	0.415788	0.564083	-0.406925	57.638130	88.087633	-13.520087	0.032446	-0.007802	-0.999443	0.945957	0.323066	0.028188	0.322666	-0.946344	0.017862			
65138						-10.551973	-0.381943	0.048165	-0.692696	-0.073939	0.723298	0.019176	-0.255293	0.004054	0.586634	0.415351	0.563304	-0.407470	54.250453	88.004543	-16.919652	0.033313	-0.010134	-0.999394	0.946010	0.322903	0.028259	0.322421	-0.946378	0.020344			
65139						-10.501693	-0.549161	-0.040027	-0.884271	-0.017510	0.666169	0.078769	-0.278503	-0.001719	0.587353	0.414721	0.562526	-0.408152	50.407281	87.918965	-20.769047	0.033953	-0.012877	-0.999340	0.946041	0.322837	0.027983	0.322264	-0.946367	0.023143			
65140						-10.359902	-0.689831	-0.073166	-1.033400	-0.004864	0.518855	0.155501	-0.301478	0.006574	0.587882	0.414595	0.561326	-0.409168	47.183469	87.803618	-24.083117	0.034989	-0.015639	-0.999265	0.946531	0.321385	0.028112	0.320709	-0.946819	0.026048			
65141						-10.306669	-0.569387	0.010393	-0.900832	-0.015343	0.470304	0.229426	-0.318456	0.012290	0.588379	0.414496	0.560028	-0.410332	44.043853	87.678003	-27.330725	0.035993	-0.018602	-0.999179	0.947120	0.319642	0.028167	0.318855	-0.947356	0.029123			
65142						-10.373535	-0.340197	0.000465	-0.701644	0.100350	0.542190	0.241725	-0.333157	0.011939	0.588825	0.414571	0.558544	-0.411636	41.293146	87.534717	-30.221263	0.037168	-0.021651	-0.999074	0.947876	0.317374	0.028385	0.316465	-0.948053	0.032318			
65143						-10.419309	-0.096971	-0.030994	-0.494501	0.242201	0.592554	0.179038	-0.357003	-0.000227	0.589461	0.414327	0.557170	-0.412831	38.458008	87.380511	-33.153937	0.038263	-0.024994	-0.998955	0.948398	0.315807	0.028424	0.314766	-0.948494	0.035788			
65144						-10.291252	0.092443	0.118595	-0.274016	0.193242	0.474194	0.107038	-0.389374	-0.022602	0.590268	0.413790	0.555866	-0.413975	35.528832	87.212168	-36.146568	0.039275	-0.028689	-0.998816	0.948735	0.314806	0.028264	0.313622	-0.948722	0.039582			
65145						-9.975765	0.001601	-0.256348	-0.474164	0.549938	0.139911	-0.084220	-0.397502	-0.030162	0.591545	0.412455	0.555070	-0.414551	32.513016	87.039245	-39.089651	0.040090	-0.032568	-0.998665	0.948334	0.316057	0.027762	0.314731	-0.948181	0.043556			
65146						-9.571687	-0.057160	-0.608180	-0.633227	0.887887	-0.283736	-0.233006	-0.376384	-0.053142	0.592950	0.410851	0.554567	-0.414809	29.848228	86.872940	-41.623262	0.040778	-0.036234	-0.998511	0.947612	0.318269	0.027150	0.316811	-0.947308	0.047314			
65147						-8.930413	-0.288105	-1.274619	-1.043792	1.452280	-0.966148	-0.387978	-0.317942	-0.083922	0.594469	0.408754	0.554682	-0.414555	27.324236	86.741647	-43.915110	0.040945	-0.039423	-0.998383	0.946336	0.322130	0.026090	0.320581	-0.945874	0.050496			
65148						-8.245209	-0.238116	-2.094716	-1.237379	2.236771	-1.695192	-0.482511	-0.202298	-0.109792	0.595777	0.406608	0.555322	-0.413928	25.226620	86.668300	-45.738012	0.040562	-0.041620	-0.998310	0.944815	0.326668	0.024769	0.325085	-0.944222	0.052574			
65149						-7.774160	-0.180374	-2.862075	-1.418330	2.966591	-2.206818	-0.513257	-0.046905	-0.148470	0.596738	0.404245	0.556853	-0.412802	23.200481	86.694203	-47.416662	0.039020	-0.042458	-0.998336	0.942878	0.332362	0.022717	0.330844	-0.942196	0.053002			
65150						-7.960162	-0.183209	-3.634767	-1.686811	3.695592	-2.059848	-0.584359	0.128040	-0.194829	0.597148	0.402235	0.558852	-0.411468	21.586142	86.807559	-48.696880	0.036758	-0.041836	-0.998448	0.940994	0.337803	0.020488	0.336422	-0.940287	0.051784			
65151						-8.439274	-0.066111	-4.799596	-1.989557	4.829200	-1.628418	-0.623033	0.281501	-0.240944	0.597209	0.399938	0.561775	-0.409634	19.631363	87.022967	-50.238617	0.033218	-0.039924	-0.998650	0.938624	0.344500	0.017449	0.343339	-0.937937	0.048917			
65152						-8.810855	0.824122	-5.233346	-1.313555	5.526994	-1.243847	-0.496534	0.444097	-0.214861	0.596502	0.398771	0.564565	-0.407963	18.735936	87.306935	-50.848830	0.029665	-0.036436	-0.998896	0.936965	0.349096	0.015092	0.348161	-0.936378	0.044496			
65153						-9.352972	1.438660	-4.421039	-0.465115	4.958944	-0.631961	-0.387605	0.564392	-0.110326	0.595504	0.398204	0.567533	-0.405852	19.364317	87.650194	-49.951155	0.026381	-0.031386	-0.999159	0.935360	0.353436	0.013595	0.352712	-0.934932	0.038681			
65154						-10.078776	0.658009	-3.953145	-1.041006	4.214418	0.126964	-0.408452	0.626244	-0.019028	0.594487	0.398213	0.570281	-0.403473	22.280757	87.992744	-46.796876	0.023978	-0.025532	-0.999386	0.933906	0.357272	0.013280	0.356714	-0.933651	0.032411			
65155						-10.570567	-1.235975	-3.892147	-2.785638	3.426109	0.623540	-0.296451	0.645484	-0.056307	0.593187	0.398182	0.573172	-0.401316	25.531369	88.358418	-43.327203	0.020839	-0.019657	-0.999590	0.932564	0.360793	0.012347	0.360402	-0.932439	0.025850			
65156						-10.059245	-1.573095	-3.492830	-2.918098	2.859435	0.145768	-0.044086	0.635130	-0.142388	0.591156	0.398927	0.575446	-0.400318	29.356632	88.722071	-39.473826	0.017215	-0.014178	-0.999751	0.932422	0.361206	0.010934	0.360962	-0.932378	0.019438			
65157						-9.093223	-1.677878	-3.493010	-2.961846	2.753491	-0.793347	0.140701	0.653576	-0.162756	0.588687	0.399957	0.577700	-0.399681	35.876053	89.109399	-32.990538	0.013037	-0.008463	-0.999879	0.932684	0.360579	0.009109	0.360459	-0.932690	0.012595			
65158						-9.015671	-1.982134	-3.652168	-3.259882	2.747097	-0.847435	0.389588	0.702057	-0.151270	0.585563	0.402077	0.579307	-0.399816	54.418524	89.460986	-14.668267	0.009101	-0.002382	-0.999956	0.934087	0.356962	0.007651	0.356928	-0.934116	0.005474			
65159						-9.296535	-2.092447	-3.743488	-3.347427	2.748077	-0.535837	0.684962	0.744197	-0.120860	0.581782	0.404993	0.580686	-0.400392	111.310773	89.616690	41.880524	0.004981	0.004466	-0.999978	0.936230	0.351333	0.006233	0.351353	-0.936240	-0.002431			
65160						-9.291739	-2.011854	-4.094198	-3.337066	3.066941	-0.506573	0.984526	0.806559	-0.065589	0.577294	0.409284	0.581205	-0.401771	152.494616	89.313727	82.503559	0.001563	0.011875	-0.999928	0.939635	0.342134	0.005532	0.342175	-0.939576	-0.010624			
65161						-9.345167	-2.102451	-4.157205	-3.376177	3.054412	-0.415550	1.323771	0.878179	-0.010346	0.571989	0.414603	0.581423	-0.403585	165.922156	88.824694	95.221168	-0.001867	0.020426	-0.999790	0.943811	0.330447	0.004989	0.330480	-0.943603	-0.019895			
65162						-9.519029	-2.038714	-3.982143	-3.184007	2.872029	-0.208596	1.641459	0.951050	0.040780	0.565868	0.421326	0.580742	-0.406221	170.378971	88.282197	98.740452	-0.004555	0.029629	-0.999551	0.949099	0.314937	0.005010	0.314944	-0.948650	-0.029555			
65163						-9.608262	-1.985182	-3.838784	-3.007375	2.710978	-0.086359	1.943147	0.986479	0.078691	0.558988	0.428927	0.579633	-0.409365	172.905361	87.695373	100.181818	-0.007108	0.039579	-0.999191	0.954901	0.296884	0.004967	0.296841	-0.954093	-0.039905			
65164						-9.604581	-1.718775	-3.732136	-2.637251	2.651329	-0.058431	2.197862	1.020362	0.098692	0.551469	0.437422	0.577755	-0.413211	174.342501	87.103943	100.361783	-0.009087	0.049700	-0.998723	0.961192	0.275837	0.004981	0.275732	-0.959919	-0.050278			
65165						-9.678876	-1.250492	-3.781445	-2.107309	2.775397	0.056407	2.362369	1.058084	0.106132	0.543342	0.446365	0.575693	-0.417271	175.693739	86.473921	100.374116	-0.011075	0.060497	-0.998107	0.967380	0.253287	0.004618	0.253087	-0.965498	-0.061329			
65166						-9.855622	-0.676181	-3.847423	-1.465959	2.911830	0.275123	2.481794	1.102529	0.105449	0.534790	0.455680	0.573245	-0.421598	176.819341	85.835481	100.079043	-0.012709	0.071500	-0.997360	0.973366	0.229221	0.004029	0.228904	-0.970745	-0.072509			
65167						-10.043506	-0.342181	-3.807211	-1.021828	2.852461	0.497577	2.494054	1.160339	0.094746	0.525789	0.465188	0.570822	-0.425804	177.922337	85.151044	99.734860	-0.014293	0.083312	-0.996421	0.978845	0.204582	0.003065	0.204105	-0.975298	-0.084474			
65168						-10.296310	-0.226347	-3.745095	-0.785788	2.697021	0.779653	2.444992	1.201955	0.075521	0.516775	0.474358	0.568569	-0.429718	179.036398	84.457347	99.448795	-0.015856	0.095276	-0.995325	0.983545	0.180654	0.001624	0.179965	-0.978921	-0.096573			
65169						-10.373559	-0.161741	-3.593817	-0.588665	2.442491	0.875536	2.395735	1.235997	0.039859	0.507494	0.483386	0.566495	-0.433442	-179.761594	83.733257	99.265897	-0.017576	0.107733	-0.994024	0.987609	0.156933	-0.000454	0.155946	-0.981716	-0.109156			
65170						-10.349244	-0.201116	-3.448872	-0.505644	2.180753	0.865733	2.318363	1.264981	0.007140	0.498271	0.492000	0.564635	-0.436863	-178.570619	83.004523	99.129543	-0.019324	0.120248	-0.992556	0.990953	0.134172	-0.003038	0.132808	-0.983635	-0.121753			
65171						-10.424380	-0.140941	-3.314832	-0.330553	1.924092	0.951244	2.235599	1.284544	-0.021535	0.488939	0.500352	0.563005	-0.440013	-177.373926	82.253146	99.037016	-0.021173	0.133123	-0.990873	0.993681	0.112072	-0.006176	0.110227	-0.984743	-0.134655			
65172						-10.369755	-0.119675	-3.223298	-0.210762	1.716477	0.908462	2.126001	1.293127	-0.050142	0.479824	0.508228	0.561591	-0.442819	-176.254240	81.507736	98.939514	-0.022948	0.145882	-0.989036	0.995783	0.091232	-0.009648	0.088824	-0.985086	-0.147360			
65173						-10.288951	-0.172793	-3.301368	-0.184577	1.668513	0.863048	2.035325	1.310174	-0.079578	0.470664	0.515799	0.560469	-0.445311	-175.141624	80.739345	98.884339	-0.024853	0.158995	-0.986966	0.997362	0.071299	-0.013629	0.068203	-0.984701	-0.160348			
65174						-10.255821	-0.227994	-3.188756	-0.148519	1.426873	0.833530	1.968557	1.333772	-0.108103	0.461568	0.523075	0.559483	-0.447578	-174.083426	79.968700	98.815554	-0.026695	0.172128	-0.984713	0.998479	0.052132	-0.017955	0.048245	-0.983694	-0.173258			
65175						-10.298550	-0.160213	-3.170746	0.003610	1.266607	0.889320	1.934620	1.355582	-0.123872	0.452298	0.530251	0.558633	-0.449655	-173.052644	79.172466	98.732957	-0.028522	0.185676	-0.982197	0.999187	0.033288	-0.022722	0.028476	-0.982047	-0.186474			
65176						-10.453725	0.006680	-3.087752	0.255721	1.018360	1.036731	1.895661	1.366666	-0.141310	0.443099	0.537193	0.557817	-0.451583	-172.082274	78.381562	98.616854	-0.030174	0.199120	-0.979510	0.999503	0.014992	-0.027742	0.009161	-0.979860	-0.199473			
65177						-10.674693	0.050380	-3.114573	0.382203	0.849688	1.268007	1.847364	1.351559	-0.140581	0.433907	0.543975	0.557041	-0.453345	-171.170627	77.587122	98.462100	-0.031632	0.212615	-0.976624	0.999451	-0.002861	-0.032994	-0.009809	-0.977132	-0.212408			
65178						-10.628667	-0.080677	-3.275593	0.325049	0.867201	1.270841	1.838137	1.340222	-0.144800	0.424811	0.550577	0.556158	-0.455071	-170.310326	76.811960	98.266233	-0.032801	0.225777	-0.973627	0.999053	-0.020448	-0.038400	-0.028579	-0.973964	-0.224893			
65179						-10.542321	-0.069102	-3.241725	0.406347	0.703450	1.186946	1.913565	1.315874	-0.123354	0.415439	0.557347	0.554928	-0.456979	-169.467786	76.041091	97.994541	-0.033549	0.238882	-0.970469	0.998269	-0.038931	-0.044093	-0.048314	-0.970268	-0.237162			
65180						-10.406942	-0.078980	-3.290405	0.463780	0.638794	1.073645	1.991721	1.284229	-0.091093	0.406081	0.564142	0.553277	-0.459050	-168.681082	75.304841	97.630622	-0.033685	0.251430	-0.967289	0.997076	-0.057965	-0.049789	-0.068588	-0.966138	-0.248742			
65181						-10.346732	0.024023	-3.218593	0.626487	0.434543	0.996174	2.110977	1.244622	-0.050535	0.396424	0.571165	0.551117	-0.461400	-167.899450	74.584086	97.183132	-0.033239	0.263738	-0.964022	0.995376	-0.078237	-0.055724	-0.090119	-0.961416	-0.259918			
65182						-10.179683	0.130600	-3.144012	0.781168	0.259954	0.810315	2.220079	1.194615	-0.004369	0.386744	0.578279	0.548348	-0.464044	-167.151695	73.911394	96.640351	-0.032046	0.275265	-0.960834	0.993129	-0.099486	-0.061624	-0.112553	-0.956207	-0.270185			
65183						-9.953571	0.442656	-3.070093	1.131980	0.081989	0.550958	2.334203	1.136072	0.034596	0.376799	0.585556	0.545014	-0.467019	-166.382125	73.266167	96.039672	-0.030295	0.286328	-0.957653	0.990217	-0.121964	-0.067791	-0.136210	-0.950337	-0.279832			
65184						-9.735123	0.776925	-3.033355	1.501370	-0.067270	0.302505	2.392673	1.081009	0.072837	0.366980	0.592752	0.541219	-0.470163	-165.640751	72.671447	95.383206	-0.027943	0.296537	-0.954612	0.986698	-0.144815	-0.073867	-0.160147	-0.943978	-0.288546			
65185						-9.622862	0.852036	-3.249058	1.654417	0.021853	0.244280	2.421580	1.015702	0.116814	0.357179	0.599917	0.537038	-0.473406	-164.920728	72.109623	94.676609	-0.025046	0.306174	-0.951646	0.982537	-0.168027	-0.079919	-0.184372	-0.937030	-0.296619			
65186						-9.445978	0.979612	-3.141485	1.799481	-0.177056	0.025202	2.524265	0.949192	0.152357	0.347381	0.607042	0.532267	-0.476988	-164.181758	71.604918	93.934213	-0.021651	0.314824	-0.948903	0.977611	-0.192036	-0.086019	-0.209304	-0.929520	-0.303617			
65187						-9.348988	1.152711	-2.826882	1.936495	-0.600483	-0.189193	2.574856	0.868252	0.190522	0.337537	0.614135	0.527005	-0.480805	-163.428326	71.142445	93.159496	-0.017814	0.322725	-0.946325	0.971883	-0.216669	-0.092186	-0.234790	-0.921359	-0.309791			
65188						-9.076032	1.227014	-2.790879	2.022008	-0.680528	-0.479085	2.578469	0.784606	0.228426	0.328066	0.620935	0.521395	-0.484726	-162.700961	70.746807	92.367965	-0.013624	0.329462	-0.944071	0.965549	-0.241040	-0.098052	-0.259863	-0.912883	-0.314828			
65189						-8.840593	1.376013	-2.760187	2.176853	-0.780826	-0.739720	2.602740	0.695533	0.269632	0.318667	0.627625	0.515348	-0.488830	-161.970346	70.399144	91.550647	-0.009078	0.335343	-0.942052	0.958438	-0.265735	-0.103830	-0.285155	-0.903842	-0.318993			
65190						-8.705282	1.552394	-2.463072	2.273724	-1.155492	-0.994936	2.603238	0.595094	0.305756	0.309678	0.633976	0.508942	-0.493105	-161.250391	70.127199	90.732832	-0.004348	0.339905	-0.940450	0.950721	-0.290156	-0.109266	-0.310017	-0.894580	-0.321894			
65191						-8.714490	1.286875	-2.451087	2.024348	-1.185583	-0.975151	2.566990	0.476452	0.361813	0.301064	0.640085	0.502150	-0.497491	-160.566125	69.922913	89.883788	0.000696	0.343283	-0.939232	0.942390	-0.314412	-0.114217	-0.334515	-0.885043	-0.323726			
65192						-8.824229	1.045707	-2.373169	1.774876	-1.289746	-0.880808	2.609629	0.355561	0.418008	0.292829	0.645909	0.494824	-0.502197	-159.882193	69.808632	89.021633	0.005894	0.345106	-0.938545	0.933338	-0.338800	-0.118717	-0.358949	-0.875281	-0.324098			
65193						-8.842181	0.790293	-2.281790	1.505742	-1.345943	-0.871977	2.673212	0.209026	0.480332	0.284721	0.651579	0.486790	-0.507360	-159.167949	69.779418	88.135797	0.011244	0.345452	-0.938369	0.923276	-0.363939	-0.122918	-0.383972	-0.864992	-0.323040			
65194						-8.910284	0.217762	-2.615147	1.114399	-0.905028	-0.635621	2.820550	0.052570	0.546417	0.276758	0.657010	0.477891	-0.513189	-158.384403	69.861127	87.250754	0.016514	0.343900	-0.938861	0.912017	-0.390049	-0.126831	-0.409819	-0.854163	-0.320085			
65195						-8.905362	-0.172313	-2.784903	0.855358	-0.618874	-0.540358	3.170229	-0.087894	0.609675	0.267944	0.662647	0.467529	-0.520117	-157.406329	70.026619	86.342495	0.021790	0.340888	-0.939851	0.898338	-0.419245	-0.131234	-0.438765	-0.841444	-0.315368			
65196						-8.733240	0.029367	-2.703780	1.044005	-0.714551	-0.758402	3.596446	-0.211533	0.661492	0.258197	0.668370	0.455635	-0.528217	-156.187860	70.283872	85.449078	0.026768	0.336297	-0.941376	0.881833	-0.451463	-0.136206	-0.470801	-0.826490	-0.308642			
65197						-8.635486	0.539278	-2.632981	1.504496	-0.980429	-0.948709	3.944057	-0.309790	0.693482	0.247364	0.674190	0.442362	-0.537210	-154.742340	70.598212	84.568801	0.031442	0.330699	-0.943212	0.862245	-0.486254	-0.141742	-0.505515	-0.808823	-0.300433			
65198						-8.863074	1.054163	-2.570331	1.946659	-1.379787	-0.836136	4.194713	-0.383834	0.698028	0.235892	0.679758	0.428178	-0.546761	-153.102168	70.968212	83.762413	0.035430	0.324162	-0.945338	0.840068	-0.522037	-0.147525	-0.541323	-0.788921	-0.290814			
65199						-9.138469	1.693949	-2.370800	2.389339	-2.001601	-0.741513	4.367962	-0.457118	0.705179	0.223750	0.685106	0.413131	-0.556676	-151.295730	71.376996	83.008734	0.038869	0.316965	-0.947640	0.815190	-0.558517	-0.153375	-0.577888	-0.766545	-0.280096			
65200						-9.205502	1.874231	-2.249231	2.471380	-2.263077	-0.752686	4.392340	-0.505085	0.745852	0.211769	0.690004	0.397693	-0.566470	-149.477330	71.836587	82.274761	0.041903	0.308899	-0.950171	0.788741	-0.593988	-0.158320	-0.613295	-0.742805	-0.268532			
65201						-9.275204	1.323527	-2.464357	2.178418	-1.836621	-0.553347	4.488539	-0.555901	0.780996	0.199399	0.694659	0.381514	-0.576313	-147.580938	72.331540	81.545743	0.044622	0.300211	-0.952829	0.759876	-0.629375	-0.162713	-0.648534	-0.716771	-0.256207			
65202						-9.312309	0.741223	-2.786439	1.981908	-1.275166	-0.353383	4.778468	-0.571235	0.827718	0.186221	0.699171	0.364197	-0.586381	-145.542513	72.863020	80.814571	0.047036	0.290879	-0.955603	0.727665	-0.665364	-0.166715	-0.684318	-0.687517	-0.242958			
65203						-9.070494	0.930272	-2.898406	2.258515	-1.288272	-0.605131	5.150729	-0.545216	0.886613	0.171607	0.703836	0.345289	-0.596608	-143.367293	73.402833	79.986031	0.049670	0.281289	-0.958337	0.690818	-0.702653	-0.170437	-0.721320	-0.653571	-0.229220			
65204						-8.845442	1.382186	-3.106443	2.773198	-1.470448	-0.871283	5.503659	-0.480599	0.956659	0.155861	0.708523	0.324968	-0.606711	-141.131873	73.953412	79.031327	0.052595	0.271369	-0.961037	0.649619	-0.740207	-0.173461	-0.758438	-0.615185	-0.215218			
65205						-9.021992	2.169612	-2.823068	3.063590	-2.373727	-0.921565	5.683614	-0.406718	0.995053	0.139187	0.713141	0.303641	-0.616327	-138.907526	74.489567	77.936955	0.055886	0.261509	-0.963582	0.604648	-0.776858	-0.175765	-0.794530	-0.572805	-0.201536			
65206						-9.132023	2.922528	-2.547457	3.241684	-3.260475	-1.021581	5.655758	-0.337027	0.994794	0.122548	0.717277	0.282315	-0.625134	-136.756417	75.012886	76.809566	0.059010	0.251779	-0.965984	0.558215	-0.810560	-0.177168	-0.827595	-0.528772	-0.188378			
65207						-9.041200	3.501879	-2.125784	3.115213	-4.051842	-1.303814	5.470894	-0.257466	0.957229	0.106083	0.720997	0.261395	-0.632915	-134.744094	75.493600	75.626559	0.062181	0.242647	-0.968120	0.511213	-0.840838	-0.177911	-0.857202	-0.483852	-0.176329			
65208						-9.061482	4.117156	-1.866055	3.058609	-4.814284	-1.445619	5.120198	-0.159917	0.886453	0.090612	0.724147	0.241831	-0.639468	-132.948982	75.921225	74.453398	0.065198	0.234356	-0.969962	0.466130	-0.866614	-0.178054	-0.882311	-0.440519	-0.165742			
65209						-9.175332	4.940679	-1.470071	2.896129	-5.836215	-1.548015	4.648071	-0.045224	0.807796	0.076257	0.726974	0.223834	-0.644664	-131.491059	76.275123	73.190760	0.068612	0.227123	-0.971446	0.423764	-0.888166	-0.177722	-0.903170	-0.399470	-0.157185			
65210						-9.317352	5.945148	-0.582247	2.286139	-7.195632	-1.720211	3.925580	0.075180	0.718333	0.064214	0.729397	0.208560	-0.648351	-130.512044	76.555556	71.885767	0.072288	0.220979	-0.972596	0.387513	-0.904759	-0.176764	-0.919026	-0.364115	-0.151035			
65211						-9.418159	6.120933	-0.169248	1.740174	-7.573205	-1.700294	2.966932	0.169925	0.627878	0.055118	0.731559	0.196542	-0.650503	-130.138780	76.762488	70.501054	0.076434	0.215855	-0.973429	0.359273	-0.916667	-0.175058	-0.930097	-0.336346	-0.147615			
65212						-9.401703	6.011480	0.080658	1.288384	-7.570529	-1.715680	2.059879	0.220156	0.532664	0.049107	0.733350	0.187947	-0.651507	-130.231636	76.912404	69.195356	0.080428	0.211676	-0.974025	0.339649	-0.924529	-0.172874	-0.937107	-0.316923	-0.146253			
65213						-9.419330	5.856749	0.255409	0.936493	-7.485521	-1.677609	1.228264	0.227312	0.461525	0.045802	0.734888	0.182176	-0.651655	-130.733960	77.026600	67.940256	0.084316	0.208064	-0.974474	0.327451	-0.929428	-0.170113	-0.941099	-0.304749	-0.146496			
65214						-9.498242	6.031054	0.552190	0.622997	-7.739959	-1.651828	0.476340	0.218630	0.425639	0.045249	0.736118	0.179112	-0.651154	-131.590652	77.125838	66.783005	0.087835	0.204767	-0.974862	0.322624	-0.931743	-0.166641	-0.942443	-0.299877	-0.147903			
65215						-9.587465	6.539098	0.144365	1.120095	-8.084054	-1.560815	-0.250879	0.193129	0.408287	0.047268	0.737125	0.178342	-0.650082	-132.824922	77.224281	65.650076	0.091176	0.201464	-0.975243	0.324377	-0.931920	-0.162188	-0.941523	-0.301559	-0.150319			
65216						-9.002970	5.952840	-1.725092	2.748830	-6.804861	-1.713132	-1.321163	0.238140	0.482115	0.053502	0.738023	0.180915	-0.647865	-134.884137	77.326848	64.316763	0.095082	0.197714	-0.975637	0.336363	-0.928815	-0.155445	-0.936920	-0.313388	-0.154817			
65217						-11.466619	-0.605915	-0.574978	-0.783676	-1.488679	1.560533	-1.448516	0.170114	0.649480	0.060771	0.738817	0.183134	-0.645693	-137.263968	77.515689	62.718222	0.099086	0.192126	-0.976355	0.349083	-0.925538	-0.146699	-0.931839	-0.326293	-0.158776			
65218						-12.381572	-3.339923	0.633362	-3.003308	0.551952	2.658647	-0.810203	-0.140172	0.831626	0.066587	0.738892	0.182636	-0.645174	-139.130927	77.890814	61.284260	0.100790	0.183976	-0.977750	0.355816	-0.924421	-0.137263	-0.929105	-0.334064	-0.158634			
65219						-9.883864	-11.576046	-3.770656	-1.594821	10.202213	1.989129	0.293016	-0.172840	0.964874	0.068734	0.739369	0.177930	-0.645717	-140.715768	78.323378	59.479657	0.102781	0.174347	-0.979305	0.351878	-0.927233	-0.128145	-0.930386	-0.331425	-0.156651			
65220						-8.415756	-4.586596	-2.279125	-0.324291	3.573666	-0.637766	1.597166	-0.097664	0.839734	0.065636	0.740344	0.169633	-0.647153	-141.487063	78.666523	57.760383	0.104835	0.166221	-0.980500	0.336126	-0.933833	-0.122371	-0.935964	-0.316743	-0.153770			
65221						-9.406530	-4.163204	-2.495679	-0.016326	3.131069	0.298651	1.613184	-0.036316	0.497277	0.061265	0.741211	0.162454	-0.648430	-141.663354	78.858323	56.627861	0.106294	0.161374	-0.981152	0.320278	-0.939710	-0.119860	-0.941341	-0.301501	-0.151570			
65222						-11.870894	-7.105379	-1.743102	-1.856261	5.304797	2.948805	1.515979	0.180235	0.288948	0.056447	0.742497	0.156523	-0.648855	-141.800158	78.877186	55.604881	0.108976	0.159184	-0.981216	0.305687	-0.944629	-0.119298	-0.945875	-0.286944	-0.151602			
65223						-13.245046	-2.246896	0.686858	-2.781029	-0.156509	3.347584	1.589065	0.166812	0.280441	0.051264	0.743744	0.150255	-0.649338	-141.872619	78.898690	54.589653	0.111566	0.156928	-0.981288	0.290078	-0.949591	-0.118879	-0.950478	-0.271387	-0.151463			
65224						-11.457548	1.249867	0.832611	-1.728089	-3.188803	1.158900	0.780215	0.151904	0.420637	0.049625	0.744770	0.146199	-0.649215	-142.692763	78.974661	53.300174	0.114291	0.153334	-0.981543	0.282204	-0.952326	-0.115910	-0.952522	-0.263748	-0.152114			
65225						-9.545830	4.731839	1.242800	-0.961403	-6.269604	-1.162543	-0.207515	0.295436	0.738385	0.052535	0.746265	0.144097	-0.647739	-145.126886	79.084935	50.930975	0.119341	0.147012	-0.981909	0.283127	-0.952952	-0.108265	-0.951628	-0.265085	-0.155350			
65226						-10.024122	5.151687	0.978554	-0.657989	-6.600211	-0.648421	-1.809694	0.396986	0.979334	0.062182	0.747764	0.146404	-0.644630	-149.283840	79.194772	47.755724	0.126035	0.138782	-0.982270	0.299120	-0.949399	-0.095757	-0.945855	-0.281748	-0.161170			
65227						-12.136496	1.021434	-0.478817	-0.799055	-2.461030	2.098258	-2.674457	0.344765	0.937407	0.074925	0.748700	0.151517	-0.640997	-153.836185	79.275646	44.673066	0.132330	0.130828	-0.982534	0.322935	-0.942858	-0.082052	-0.937124	-0.306436	-0.167018			
65228						-13.198453	-2.692599	-1.026173	-1.721530	1.176339	3.534689	-2.454562	0.244747	0.840711	0.086628	0.749162	0.156319	-0.637821	-157.891401	79.341282	41.979124	0.137496	0.123711	-0.982746	0.344723	-0.936120	-0.069612	-0.928580	-0.329204	-0.171359			
65229						-11.039232	-4.875830	-2.781236	-0.682003	4.167044	1.829551	-1.519253	0.201510	0.886730	0.094967	0.749853	0.157829	-0.635446	-161.554990	79.407432	39.128620	0.142598	0.116004	-0.982959	0.357390	-0.932143	-0.058161	-0.923005	-0.343006	-0.174380			
65230						-8.713714	-3.652493	-3.079355	0.265569	3.485672	-0.510497	-0.160840	0.311238	0.925702	0.098276	0.751511	0.155020	-0.633673	-164.649828	79.387258	36.075487	0.148854	0.108449	-0.982894	0.357548	-0.932621	-0.048753	-0.921956	-0.344175	-0.177600			
65231						-8.396022	0.311073	-1.673645	0.375856	-0.601353	-1.275257	0.897390	0.390420	0.929204	0.097518	0.753935	0.148787	-0.632404	-167.201542	79.296594	32.947252	0.155855	0.101010	-0.982602	0.347694	-0.936705	-0.041142	-0.924564	-0.335232	-0.181111			
65232						-8.811456	2.485713	-0.757594	0.149344	-2.938313	-1.109950	0.937005	0.382093	0.974200	0.096792	0.756330	0.142339	-0.631139	-169.786229	79.189463	29.771571	0.162806	0.093133	-0.982253	0.337489	-0.940742	-0.033259	-0.927144	-0.326085	-0.184590			
65233						-9.032783	2.551822	-1.213389	0.475338	-2.817260	-0.789852	0.619906	0.384570	0.975144	0.097217	0.758567	0.136773	-0.629617	-172.514188	79.054227	26.621316	0.169750	0.085084	-0.981807	0.329922	-0.943684	-0.024738	-0.928621	-0.319721	-0.188262			
65234						-9.138599	1.825117	-1.589980	0.492552	-1.963333	-0.578235	0.370545	0.404067	0.901038	0.098383	0.760648	0.132388	-0.627860	-175.072402	78.875760	23.800306	0.176529	0.077860	-0.981211	0.324943	-0.945588	-0.016573	-0.929112	-0.315913	-0.192224			
65235						-9.008131	1.455648	-1.219478	-0.017510	-1.664389	-0.758332	0.127688	0.440915	0.830853	0.100191	0.762678	0.128939	-0.625827	-177.506763	78.650650	21.234105	0.183430	0.071274	-0.980446	0.322081	-0.946673	-0.008561	-0.928772	-0.314213	-0.196604			
65236						-9.126163	1.608018	-1.387915	0.101137	-1.706824	-0.599937	-0.279186	0.464917	0.801233	0.103474	0.764523	0.126993	-0.623434	-179.963863	78.390220	18.891778	0.190404	0.065159	-0.979541	0.323197	-0.946332	-0.000127	-0.926979	-0.316561	-0.201245			
65237						-9.312088	1.366603	-2.194870	0.671378	-1.169236	-0.242869	-0.677916	0.453967	0.775395	0.108187	0.766104	0.126286	-0.620832	177.506121	78.116543	16.697304	0.197239	0.059164	-0.978568	0.327828	-0.944695	0.008960	-0.923919	-0.322570	-0.205727			
65238						-9.490858	0.111473	-2.791507	0.707870	0.273127	0.051626	-0.914703	0.429668	0.765515	0.113806	0.767433	0.126428	-0.618151	174.996464	77.837881	14.668906	0.203812	0.053351	-0.977555	0.334749	-0.942128	0.018375	-0.920002	-0.330980	-0.209876			
65239						-9.591544	-0.888587	-3.265326	0.713191	1.447006	0.229532	-0.834147	0.396003	0.774151	0.119144	0.768694	0.126171	-0.615626	172.579289	77.559651	12.677409	0.210171	0.047277	-0.976521	0.340670	-0.939771	0.027823	-0.916391	-0.338519	-0.213619			
65240						-9.855489	-1.269228	-3.501907	0.670303	1.948449	0.519706	-0.390608	0.371891	0.795974	0.122873	0.770121	0.124539	-0.613437	170.470827	77.277304	10.748082	0.216369	0.041071	-0.975447	0.342570	-0.938785	0.036459	-0.914238	-0.342048	-0.217194			
65241						-10.041148	-1.230499	-3.251572	0.350094	1.888220	0.638290	0.118325	0.333515	0.843920	0.124786	0.771772	0.121039	-0.611675	168.583644	76.996107	8.735156	0.222407	0.034173	-0.974355	0.339487	-0.939556	0.044539	-0.913939	-0.340686	-0.220565			
65242						-9.980813	-0.877896	-3.192246	0.376823	1.598593	0.573835	0.632985	0.304123	0.873888	0.124843	0.773636	0.115924	-0.610298	167.005434	76.715530	6.743757	0.228196	0.026984	-0.973241	0.331750	-0.941951	0.051669	-0.915352	-0.334663	-0.223901			
65243						-10.096409	-0.032575	-3.116603	0.514457	0.822963	0.709170	0.958917	0.290385	0.842120	0.123526	0.775628	0.109842	-0.609161	165.734961	76.434243	4.866454	0.233716	0.019899	-0.972101	0.320888	-0.945352	0.057798	-0.917828	-0.325443	-0.227329			
65244						-10.299773	1.031809	-2.927028	0.582105	-0.208700	0.926710	1.040985	0.272199	0.818611	0.121843	0.777554	0.103667	-0.608126	164.633293	76.159129	3.120295	0.238871	0.013022	-0.970964	0.309406	-0.948814	0.063394	-0.920439	-0.315566	-0.230674			
65245						-10.352705	1.943623	-3.076188	0.928764	-0.988227	1.076733	0.926664	0.231463	0.806547	0.120551	0.779264	0.097756	-0.607173	163.506353	75.898435	1.402917	0.243568	0.005965	-0.969865	0.298747	-0.951822	0.069172	-0.922727	-0.306592	-0.233616			
65246						-10.088859	2.122966	-3.156240	1.063310	-1.089927	0.861343	0.687280	0.166535	0.799415	0.120231	0.780585	0.092659	-0.606339	162.281628	75.668120	-0.265023	0.247535	-0.001145	-0.968878	0.290458	-0.953918	0.075335	-0.924316	-0.300066	-0.235796			
65247						-9.671847	1.698827	-3.138782	0.980694	-0.640905	0.429857	0.485625	0.106297	0.783639	0.120663	0.781588	0.088121	-0.605636	160.962783	75.462104	-1.919121	0.250880	-0.008406	-0.967982	0.283904	-0.955350	0.081878	-0.925450	-0.295356	-0.237291			
65248						-9.531050	1.231224	-3.067777	0.782631	-0.163386	0.243583	0.421857	0.061426	0.755405	0.121288	0.782376	0.083933	-0.605089	159.687960	75.278870	-3.484761	0.253645	-0.015446	-0.967174	0.278114	-0.956489	0.088212	-0.926454	-0.291359	-0.238313			
65249						-9.569919	1.523515	-2.863217	0.635398	-0.448124	0.261915	0.399771	0.019661	0.720385	0.121895	0.783009	0.079842	-0.604702	158.458329	75.113861	-4.998902	0.255922	-0.022385	-0.966438	0.272455	-0.957534	0.094328	-0.927509	-0.287451	-0.238955			
65250						-9.417580	1.656216	-2.928660	0.746823	-0.506497	0.147049	0.358715	-0.027497	0.711692	0.122667	0.783443	0.075959	-0.604483	157.228084	74.970316	-6.483329	0.257661	-0.029281	-0.965792	0.267319	-0.958366	0.100373	-0.928521	-0.284037	-0.239106			
65251						-9.402461	2.024262	-2.736738	0.649127	-0.858615	0.128880	0.272189	-0.048730	0.701232	0.123730	0.783760	0.072270	-0.604308	155.961977	74.828891	-7.963508	0.259179	-0.036257	-0.965149	0.262828	-0.958936	0.106603	-0.929380	-0.281297	-0.239006			
65252						-9.694277	2.015577	-2.999562	0.797629	-0.707929	0.478146	0.196614	-0.085351	0.680556	0.125061	0.783886	0.068961	-0.604257	154.699105	74.706261	-9.387414	0.260235	-0.043023	-0.964586	0.259253	-0.959208	0.112727	-0.930089	-0.279408	-0.238466			
65253						-9.947447	1.636623	-3.040533	0.658792	-0.261738	0.693133	0.207964	-0.127568	0.660040	0.126272	0.783891	0.065567	-0.604377	153.448717	74.598831	-10.816018	0.260858	-0.049837	-0.964090	0.255426	-0.959513	0.118712	-0.930973	-0.277221	-0.237567			
65254						-9.891224	1.497956	-2.954277	0.550728	-0.097559	0.603399	0.306235	-0.165218	0.640707	0.127076	0.783810	0.062031	-0.604686	152.286805	74.511383	-12.201795	0.261014	-0.056442	-0.963684	0.250923	-0.960008	0.124189	-0.932153	-0.274225	-0.236413			
65255						-9.605329	1.804832	-2.888064	0.635729	-0.374252	0.351774	0.423706	-0.188353	0.604713	0.127293	0.783729	0.058165	-0.605130	151.234790	74.434440	-13.553528	0.260868	-0.062887	-0.963324	0.245228	-0.960827	0.129131	-0.933708	-0.269920	-0.235227			
65256						-9.366344	2.551060	-2.647092	0.650842	-1.127362	0.164723	0.465465	-0.195787	0.555526	0.127221	0.783609	0.054459	-0.605645	150.312022	74.372685	-14.786762	0.260458	-0.068752	-0.963034	0.239451	-0.961698	0.133417	-0.935321	-0.265349	-0.234019			
65257						-9.276394	3.097588	-2.600751	0.754870	-1.630896	0.146262	0.420538	-0.218953	0.524962	0.127215	0.783388	0.050894	-0.606242	149.388110	74.321724	-16.004365	0.259761	-0.074507	-0.962794	0.233985	-0.962452	0.137609	-0.936897	-0.261025	-0.232574			
65258						-9.183673	2.860219	-2.661716	0.778009	-1.354936	0.044501	0.352089	-0.241032	0.486978	0.127388	0.783022	0.047770	-0.606932	148.487856	74.291857	-17.147323	0.258703	-0.079821	-0.962653	0.229442	-0.962980	0.141509	-0.938312	-0.257482	-0.230811			
65259						-9.135032	2.336246	-2.640584	0.653124	-0.822303	-0.077356	0.347409	-0.262755	0.451732	0.127459	0.782586	0.044686	-0.607714	147.611675	74.273949	-18.271566	0.257373	-0.084976	-0.962569	0.224859	-0.963515	0.145183	-0.939786	-0.253809	-0.228875			
65260						-9.251698	1.814010	-2.659972	0.532009	-0.271012	-0.034987	0.422628	-0.278856	0.418041	0.127153	0.782118	0.041593	-0.608600	146.834167	74.274452	-19.329177	0.255752	-0.089709	-0.962571	0.219833	-0.964204	0.148271	-0.941416	-0.249525	-0.226876			
65261						-9.333516	1.686549	-2.706881	0.537575	-0.099892	0.035518	0.520126	-0.284886	0.386313	0.126356	0.781692	0.038229	-0.609532	146.145687	74.279457	-20.360575	0.254017	-0.094269	-0.962595	0.213803	-0.965145	0.150939	-0.943273	-0.244147	-0.225009			
65262						-9.384220	1.811164	-2.509362	0.376022	-0.239388	0.058587	0.576804	-0.281520	0.362639	0.125276	0.781284	0.034881	-0.610480	145.546285	74.292161	-21.324874	0.252196	-0.098453	-0.962655	0.207460	-0.966179	0.153164	-0.945176	-0.238340	-0.223241			
65263						-9.432432	2.189952	-2.343079	0.294215	-0.616951	0.126601	0.565969	-0.284821	0.342908	0.124157	0.780859	0.031536	-0.611432	144.955224	74.305119	-22.283576	0.250312	-0.102577	-0.962716	0.201078	-0.967181	0.155334	-0.947054	-0.232463	-0.221471			
65264						-9.386064	2.404717	-2.352398	0.367251	-0.805567	0.118615	0.484834	-0.286718	0.315121	0.123288	0.780350	0.028650	-0.612399	144.373358	74.330614	-23.174780	0.248292	-0.106289	-0.962836	0.195718	-0.967958	0.157325	-0.948707	-0.227507	-0.219534			
65265						-9.481191	2.125614	-2.242688	0.195923	-0.527776	0.143410	0.438941	-0.292851	0.295472	0.122524	0.779798	0.025881	-0.613379	143.774805	74.357900	-24.064461	0.246193	-0.109944	-0.962965	0.190671	-0.968636	0.159339	-0.950281	-0.222837	-0.217509			
65266						-9.487533	1.635394	-2.158094	0.034516	-0.049785	0.053489	0.481964	-0.284982	0.289593	0.121586	0.779273	0.023103	-0.614342	143.230622	74.386410	-24.914592	0.244100	-0.113383	-0.963099	0.185399	-0.969366	0.161111	-0.951863	-0.217885	-0.215602			
65267						-9.286481	1.421196	-1.992226	-0.101205	0.118314	-0.210437	0.617053	-0.262009	0.275186	0.120053	0.778905	0.019875	-0.615222	142.800724	74.402068	-25.736144	0.242213	-0.116757	-0.963172	0.178680	-0.970384	0.162565	-0.953628	-0.211475	-0.214177			
65268						-9.079157	1.831296	-1.656407	-0.290217	-0.360110	-0.415108	0.722603	-0.220879	0.263944	0.118089	0.778700	0.016496	-0.615961	142.512879	74.406912	-26.463154	0.240639	-0.119785	-0.963195	0.171168	-0.971566	0.163589	-0.955403	-0.204234	-0.213293			
65269						-9.132676	2.045153	-1.584854	-0.334756	-0.562115	-0.343150	0.753729	-0.183595	0.266701	0.115997	0.778629	0.012943	-0.616534	142.273087	74.387718	-27.166449	0.239437	-0.122877	-0.963105	0.163187	-0.972754	0.164678	-0.957100	-0.196597	-0.212862			
65270						-9.260103	2.074249	-1.280479	-0.656986	-0.620685	-0.279863	0.760876	-0.123945	0.274391	0.113905	0.778720	0.009462	-0.616872	142.113627	74.343434	-27.783051	0.238760	-0.125793	-0.962897	0.155265	-0.973872	0.165727	-0.958586	-0.189073	-0.212990			
65271						-9.233013	2.182368	-1.254469	-0.670644	-0.718514	-0.293292	0.752566	-0.063675	0.275911	0.111830	0.778992	0.005934	-0.616953	142.012510	74.265695	-28.343205	0.238668	-0.128742	-0.962530	0.147233	-0.974918	0.166906	-0.959875	-0.181551	-0.213727			
65272						-9.057517	2.226289	-1.097475	-0.789772	-0.797528	-0.488547	0.705247	-0.006590	0.278998	0.109960	0.779389	0.002673	-0.616810	141.966769	74.166221	-28.808966	0.239078	-0.131483	-0.962057	0.139815	-0.975803	0.168106	-0.960882	-0.174701	-0.214909			
65273						-8.956201	2.175387	-1.092548	-0.799287	-0.744651	-0.596068	0.640563	0.058714	0.302677	0.108407	0.779952	-0.000534	-0.616379	141.918427	74.023702	-29.246335	0.240154	-0.134473	-0.961376	0.132808	-0.976495	0.169763	-0.961607	-0.168447	-0.216650			
65274						-8.882338	2.106061	-1.088338	-0.820808	-0.670235	-0.680718	0.604986	0.129158	0.305826	0.107008	0.780693	-0.003517	-0.615675	141.948252	73.853396	-29.574326	0.241865	-0.137255	-0.960553	0.126273	-0.977074	0.171411	-0.962058	-0.162751	-0.218988			
65275						-8.897325	2.271888	-0.993868	-0.926162	-0.827405	-0.660138	0.558943	0.193566	0.297543	0.105761	0.781607	-0.006375	-0.614707	142.032427	73.652043	-29.824915	0.244189	-0.139989	-0.959570	0.120060	-0.977548	0.173165	-0.962267	-0.157491	-0.221899			
65276						-9.145594	2.773114	-1.097409	-0.863394	-1.249355	-0.313747	0.440765	0.242224	0.283768	0.104936	0.782593	-0.008706	-0.613565	142.143075	73.438642	-29.971180	0.246925	-0.142397	-0.958515	0.115144	-0.977825	0.174928	-0.962169	-0.153561	-0.225054			
65277						-9.448564	2.881250	-1.485906	-0.591147	-1.233562	0.082443	0.258133	0.278554	0.274626	0.104803	0.783594	-0.010500	-0.612279	142.192551	73.207259	-30.077560	0.250008	-0.144794	-0.957356	0.111882	-0.977812	0.177105	-0.961758	-0.151389	-0.228261			
65278						-9.660633	2.275299	-1.889619	-0.360777	-0.529059	0.270233	0.081449	0.294501	0.276760	0.105365	0.784543	-0.011676	-0.610946	142.171002	72.972731	-30.147167	0.253219	-0.147064	-0.956165	0.110424	-0.977524	0.179593	-0.961086	-0.151060	-0.231288			
65279						-9.428494	1.577945	-2.260019	-0.057992	0.198087	0.008278	0.018552	0.298185	0.283209	0.106199	0.785470	-0.012761	-0.609587	142.095407	72.729482	-30.240903	0.256482	-0.149521	-0.954914	0.109429	-0.977118	0.182390	-0.960334	-0.151275	-0.234251			
65280						-9.194909	1.172402	-2.524809	0.177481	0.622004	-0.227437	0.064554	0.316128	0.289390	0.106866	0.786468	-0.013922	-0.608157	142.073489	72.480702	-30.300933	0.259903	-0.151881	-0.953616	0.108084	-0.976772	0.185026	-0.959567	-0.151159	-0.237450			
65281						-9.146620	1.344780	-2.646636	0.289435	0.486662	-0.213051	0.100183	0.330065	0.284486	0.107384	0.787527	-0.015242	-0.606661	142.081869	72.222641	-30.355705	0.263461	-0.154298	-0.952250	0.106285	-0.976473	0.187629	-0.958797	-0.150643	-0.240863			
65282						-9.124028	1.889794	-2.651912	0.320824	-0.028032	-0.130334	0.125440	0.333633	0.291095	0.107817	0.788602	-0.016585	-0.605150	142.113077	71.965355	-30.396737	0.267036	-0.156649	-0.950869	0.104332	-0.976201	0.190122	-0.958022	-0.149976	-0.244338			
65283						-9.195151	1.928925	-2.617908	0.234974	-0.037470	-0.062394	0.096952	0.324701	0.313082	0.108443	0.789634	-0.017993	-0.603651	142.076507	71.699801	-30.494810	0.270562	-0.159340	-0.949424	0.102508	-0.975833	0.192985	-0.957229	-0.149537	-0.247690			
65284						-9.152631	1.983789	-2.403007	0.008385	-0.106243	-0.144751	0.121471	0.327998	0.326386	0.108996	0.790678	-0.019467	-0.602138	142.053263	71.432628	-30.590966	0.274103	-0.162046	-0.947950	0.100478	-0.975482	0.195805	-0.956437	-0.148919	-0.251100			
65285						-9.016954	2.180457	-2.389185	0.013110	-0.297949	-0.237774	0.122395	0.337037	0.313713	0.109509	0.791750	-0.020972	-0.600583	142.046190	71.161047	-30.676848	0.277721	-0.164747	-0.946430	0.098329	-0.975136	0.198598	-0.955616	-0.148217	-0.254616			
65286						-8.942585	2.466368	-2.405698	0.039025	-0.564854	-0.246108	0.045445	0.352307	0.276415	0.110214	0.792822	-0.022006	-0.599001	142.072818	70.900495	-30.674511	0.281426	-0.166929	-0.944952	0.097144	-0.974737	0.201123	-0.954653	-0.148397	-0.258101			
65287						-9.009997	2.755725	-2.372445	-0.021035	-0.818611	-0.131165	-0.114986	0.367485	0.229694	0.111434	0.793855	-0.022425	-0.597389	142.071521	70.644949	-30.607127	0.285247	-0.168743	-0.943483	0.097534	-0.974159	0.203717	-0.953478	-0.150132	-0.261418			
65288						-9.119780	3.251330	-2.258005	-0.146274	-1.278116	0.045559	-0.311328	0.378896	0.190991	0.113300	0.794809	-0.022038	-0.595782	142.029402	70.402488	-30.460879	0.289116	-0.170036	-0.942072	0.099973	-0.973355	0.206364	-0.952060	-0.153845	-0.264413			
65289						-9.207472	3.420196	-2.173474	-0.262644	-1.414051	0.143749	-0.588204	0.395334	0.172989	0.116222	0.795651	-0.020825	-0.594137	141.854234	70.154254	-30.292353	0.293136	-0.171242	-0.940610	0.104965	-0.972117	0.209690	-0.950291	-0.160199	-0.266988			
65290						-9.376666	2.796397	-2.556766	-0.036393	-0.683596	0.277405	-0.830461	0.393960	0.198047	0.120172	0.796329	-0.018913	-0.592505	141.521179	69.902833	-30.138729	0.297161	-0.172527	-0.939111	0.112284	-0.970402	0.213805	-0.948202	-0.168981	-0.268994			
65291						-9.674805	0.860562	-2.719855	-0.218150	1.315366	0.185412	-0.756361	0.375669	0.257237	0.124010	0.796976	-0.017544	-0.590883	141.130122	69.633933	-30.096479	0.301098	-0.174516	-0.937488	0.118586	-0.968627	0.218399	-0.946191	-0.176933	-0.270957			
65292						-9.868864	-0.029357	-3.043171	-0.118588	2.305264	0.253476	-0.364616	0.403736	0.277133	0.126335	0.797934	-0.017317	-0.589102	140.982450	69.350272	-30.029365	0.305317	-0.176483	-0.935754	0.121213	-0.967479	0.222016	-0.944505	-0.181211	-0.273996			
65293						-9.746247	1.087894	-2.831727	-0.192601	1.192531	0.322996	-0.022777	0.419990	0.273459	0.127297	0.799151	-0.018140	-0.587217	141.038704	69.056246	-29.957415	0.309695	-0.178496	-0.933932	0.120508	-0.966933	0.224764	-0.943169	-0.182155	-0.277944			
65294						-9.300976	2.285636	-2.502193	-0.269610	-0.083865	0.082427	0.104689	0.435818	0.306749	0.127837	0.800486	-0.019392	-0.585239	141.153182	68.747611	-29.897264	0.314239	-0.180675	-0.931993	0.118585	-0.966564	0.227360	-0.941909	-0.181965	-0.282306			
65295						-9.438268	2.870882	-2.428776	-0.364440	-0.614804	0.321943	0.059128	0.462900	0.325868	0.128634	0.801864	-0.020623	-0.583131	141.232071	68.415810	-29.849379	0.319065	-0.183096	-0.929878	0.116947	-0.966056	0.230347	-0.940490	-0.182242	-0.286822			
65296						-9.556139	2.941346	-2.278559	-0.588457	-0.663834	0.403765	-0.032731	0.484103	0.317143	0.129758	0.803237	-0.021484	-0.580958	141.295432	68.081811	-29.759221	0.324053	-0.185281	-0.927718	0.116255	-0.965403	0.233415	-0.938869	-0.183491	-0.291302			
65297						-9.208714	2.844168	-2.129963	-0.679584	-0.635269	0.013847	-0.061387	0.496155	0.317740	0.131026	0.804620	-0.022298	-0.578724	141.339880	67.738186	-29.671927	0.329164	-0.187538	-0.925462	0.115773	-0.964670	0.236661	-0.937149	-0.185044	-0.295823			
65298						-9.026964	2.669309	-2.293938	-0.539095	-0.444309	-0.149090	-0.117610	0.536193	0.327130	0.132523	0.806073	-0.022918	-0.576333	141.384659	67.377249	-29.548812	0.334631	-0.189702	-0.923058	0.115808	-0.963825	0.240063	-0.935206	-0.187230	-0.300557			
65299						-8.967795	2.632786	-2.502612	-0.384327	-0.353986	-0.151288	-0.107866	0.576583	0.322687	0.133994	0.807639	-0.023574	-0.573767	141.460414	66.995818	-29.399346	0.340471	-0.191840	-0.920476	0.115685	-0.962980	0.243489	-0.933111	-0.189386	-0.305674			
65300						-9.249592	2.671077	-2.571865	-0.470672	-0.297358	0.136874	-0.129055	0.599861	0.322334	0.135528	0.809249	-0.024099	-0.571111	141.550402	66.607928	-29.219225	0.346503	-0.193807	-0.917810	0.115799	-0.962103	0.246878	-0.930874	-0.191826	-0.310929			
65301						-9.512798	2.407161	-2.912411	-0.339235	0.101399	0.416883	-0.071150	0.607343	0.345075	0.136898	0.810905	-0.024957	-0.568392	141.640545	66.204392	-29.079797	0.352615	-0.196100	-0.914991	0.115147	-0.961272	0.250394	-0.928657	-0.193651	-0.316378			
65302						-9.681963	1.954816	-3.144429	-0.303233	0.641897	0.528720	0.036043	0.610468	0.369597	0.137896	0.812631	-0.026136	-0.565626	141.776549	65.794707	-28.951745	0.358768	-0.198473	-0.912082	0.113517	-0.960603	0.253684	-0.926499	-0.194551	-0.322103			
65303						-9.737555	1.887906	-3.263603	-0.292531	0.764966	0.597117	0.249508	0.624952	0.372681	0.138053	0.814531	-0.027981	-0.562759	142.027483	65.373493	-28.833861	0.365040	-0.200963	-0.909043	0.109798	-0.960317	0.256389	-0.924495	-0.193404	-0.328488			
65304						-10.064717	2.525051	-2.930023	-0.729483	0.171518	0.943580	0.403913	0.652442	0.355975	0.137518	0.816606	-0.030112	-0.559764	142.407091	64.949141	-28.668779	0.371514	-0.203135	-0.905932	0.104776	-0.960364	0.258308	-0.922496	-0.190885	-0.335505			
65305						-10.471052	3.200445	-2.749075	-1.065100	-0.414557	1.418349	0.420902	0.686300	0.333829	0.136874	0.818774	-0.032231	-0.556629	142.823884	64.513131	-28.474550	0.378250	-0.205155	-0.902684	0.099597	-0.960453	0.260019	-0.920330	-0.188256	-0.342859			
65306						-10.609759	2.989548	-2.583941	-1.383503	-0.200580	1.422350	0.365263	0.706413	0.339768	0.136455	0.820945	-0.034151	-0.553411	143.217232	64.068735	-28.268452	0.385140	-0.207103	-0.899319	0.094960	-0.960427	0.261843	-0.917959	-0.186246	-0.350233			
65307						-10.684649	2.408780	-2.201647	-1.914501	0.319624	1.189261	0.387122	0.781260	0.369058	0.136049	0.823311	-0.036270	-0.549849	143.627294	63.575957	-28.060622	0.392700	-0.209336	-0.895525	0.089891	-0.960350	0.263907	-0.915263	-0.184136	-0.358312			
65308						-10.925197	1.639502	-2.213947	-2.171987	1.128945	1.185327	0.443284	0.908610	0.389577	0.135477	0.826045	-0.038470	-0.545726	144.134047	63.019867	-27.775858	0.401407	-0.211422	-0.891164	0.084311	-0.960332	0.265808	-0.912011	-0.181832	-0.367659			
65309						-10.600501	0.992952	-1.800608	-2.590141	1.623179	0.543657	0.675101	1.075350	0.416137	0.134058	0.829348	-0.041364	-0.540833	144.829479	62.373169	-27.430097	0.411578	-0.213616	-0.885987	0.076396	-0.960635	0.267103	-0.908167	-0.177619	-0.379057			
65310						-10.176936	1.062027	-0.656403	-3.577223	1.279805	-0.289417	0.884411	1.243651	0.466463	0.131924	0.833197	-0.044851	-0.535133	145.687718	61.631319	-27.030165	0.423242	-0.215933	-0.879908	0.066454	-0.961169	0.267840	-0.903576	-0.171834	-0.392458			
65311						-10.668535	2.068677	0.051147	-4.503806	0.319437	0.072188	0.930254	1.403060	0.483463	0.129683	0.837431	-0.048481	-0.528717	146.608563	60.803643	-26.588301	0.436217	-0.218330	-0.872953	0.055932	-0.961664	0.268466	-0.898102	-0.165935	-0.407282			
65312						-12.293949	2.525104	-0.015148	-5.305869	0.270215	1.557816	0.678190	1.561553	0.470788	0.128480	0.841868	-0.051227	-0.521658	147.455380	59.902173	-26.059180	0.450498	-0.220299	-0.865170	0.047792	-0.961737	0.269773	-0.891497	-0.162880	-0.422732			
65313						-13.791752	1.545438	-0.924213	-5.427462	1.718660	2.877416	0.466920	1.674488	0.503116	0.128277	0.846372	-0.053547	-0.514132	148.165508	58.932039	-25.546497	0.465603	-0.222545	-0.856556	0.041261	-0.961355	0.272202	-0.884031	-0.162080	-0.438427			
65314						-14.029613	-0.349249	-1.771429	-5.096399	3.765690	2.833686	0.455946	1.749494	0.608109	0.128393	0.850976	-0.056165	-0.506162	148.796043	57.891318	-25.111073	0.481291	-0.225566	-0.847041	0.034385	-0.960721	0.275377	-0.875886	-0.161661	-0.454630			
65315						-14.079152	-2.216392	-2.623663	-4.663499	5.754525	2.643259	0.829717	1.782599	0.736043	0.127250	0.855763	-0.060290	-0.497838	149.515059	56.795215	-24.820972	0.497045	-0.229888	-0.836719	0.023511	-0.960345	0.277821	-0.867406	-0.157762	-0.471930			
65316						-13.985154	-3.066612	-3.337379	-4.224039	6.708786	2.567642	1.346956	1.730778	0.828328	0.124081	0.860634	-0.066079	-0.489435	150.414562	55.695082	-24.665380	0.512175	-0.235199	-0.826050	0.007719	-0.960475	0.278260	-0.858847	-0.148894	-0.490115			
65317						-13.124889	-2.212777	-2.891536	-4.337041	5.665626	1.789374	1.784155	1.639294	0.891679	0.119132	0.865380	-0.073301	-0.481199	151.444728	54.624421	-24.656565	0.526149	-0.241519	-0.815375	-0.012213	-0.960869	0.276734	-0.850305	-0.135645	-0.508510			
65318						-11.813985	-0.956317	-3.428476	-3.376187	4.254662	1.265915	1.877683	1.651613	0.954072	0.113918	0.870059	-0.080954	-0.472723	152.468242	53.528119	-24.719185	0.539960	-0.248573	-0.804149	-0.033166	-0.960938	0.274769	-0.841037	-0.121694	-0.527112			
65319						-10.706925	0.140421	-5.406637	-1.338077	3.194221	1.671768	1.664610	1.673363	1.006032	0.109715	0.874471	-0.088374	-0.464169	153.316002	52.411519	-24.857341	0.553475	-0.256414	-0.792412	-0.052709	-0.960305	0.273926	-0.831196	-0.109844	-0.545020			
65320						-10.077454	1.455878	-6.467317	-0.397541	1.901419	2.092047	1.627496	1.753367	1.026335	0.105767	0.878919	-0.095668	-0.455150	154.142619	51.246271	-24.989953	0.567372	-0.264449	-0.779844	-0.071889	-0.959322	0.273008	-0.820318	-0.098834	-0.563303			
65321						-10.261462	2.266652	-7.063225	-0.314548	1.251932	2.783063	1.410926	1.690941	1.082015	0.102858	0.882927	-0.102706	-0.446443	154.775229	50.105354	-25.211680	0.580280	-0.273204	-0.767225	-0.089523	-0.957744	0.273336	-0.809481	-0.089927	-0.580218			
65322						-9.849766	2.230830	-8.008091	0.443253	1.296876	3.002943	1.233172	1.677994	1.183236	0.100930	0.886649	-0.109811	-0.437731	155.236855	48.943371	-25.531522	0.592667	-0.283088	-0.754061	-0.106367	-0.955509	0.275114	-0.798394	-0.082844	-0.596410			
65323						-9.970089	1.320168	-7.299614	-0.331136	2.194303	2.414368	1.313557	1.638288	1.307767	0.098885	0.890109	-0.117624	-0.429059	155.659070	47.778769	-25.968625	0.604146	-0.294252	-0.740556	-0.124542	-0.952772	0.276973	-0.787081	-0.075102	-0.612261			
65324						-10.697694	0.413517	-3.251762	-4.031375	3.044939	0.170230	1.850301	1.500938	1.439797	0.094634	0.893323	-0.127248	-0.420507	156.282454	46.653242	-26.561510	0.613965	-0.306935	-0.727213	-0.147758	-0.949705	0.276094	-0.775381	-0.062060	-0.628437			
65325						-10.511781	-0.525918	-2.030608	-4.841685	3.908273	-1.084653	2.005722	1.211737	1.540862	0.089695	0.895749	-0.137740	-0.413058	156.873355	45.666417	-27.331272	0.620821	-0.320859	-0.715283	-0.172662	-0.945965	0.274478	-0.764702	-0.046899	-0.642676			
65326						-10.674302	-4.494957	-1.726640	-4.507723	7.806456	-2.338403	1.964278	0.911690	1.440663	0.084515	0.897456	-0.147828	-0.406911	157.434617	44.860376	-28.123200	0.625141	-0.334119	-0.705382	-0.196558	-0.942008	0.272004	-0.755357	-0.031392	-0.654562			
65327						-9.804025	-6.741879	-0.632176	-4.252580	9.679851	-4.318565	2.551135	0.649219	1.131162	0.075845	0.898920	-0.157789	-0.401613	158.441206	44.274865	-28.769406	0.627619	-0.344600	-0.698101	-0.222758	-0.938700	0.263098	-0.745971	-0.009618	-0.665908			
65328						-9.528637	-3.844904	-0.549634	-4.666028	6.924232	-3.799161	3.204735	0.446981	0.894576	0.063603	0.900212	-0.168054	-0.396650	159.900584	43.849069	-29.308865	0.628853	-0.353024	-0.692761	-0.252111	-0.935425	0.247829	-0.735516	0.018805	-0.677246			
65329						-9.625256	-1.347224	-0.428493	-5.379547	4.675755	-3.191387	3.008243	0.226503	0.756300	0.051729	0.900861	-0.177327	-0.392847	161.275270	43.586967	-29.814928	0.628454	-0.360136	-0.689455	-0.278850	-0.931759	0.232525	-0.726146	0.046123	-0.685991			
65330						-9.800247	-0.769696	-0.838597	-5.321043	4.224868	-2.658853	2.453710	-0.011154	0.612562	0.041889	0.900870	-0.184896	-0.390502	162.360940	43.479319	-30.277421	0.626644	-0.365850	-0.688093	-0.300418	-0.928118	0.219878	-0.719073	0.068931	-0.691507			
65331						-9.711459	-1.235294	-0.672741	-5.206282	4.660717	-2.923344	1.954143	-0.256474	0.385391	0.033576	0.900360	-0.190489	-0.389794	163.239890	43.560264	-30.629029	0.623550	-0.369193	-0.689117	-0.316842	-0.925173	0.208964	-0.714701	0.088042	-0.693867			
65332						-9.453526	-1.720150	-0.477752	-4.979912	5.037976	-3.303068	1.592929	-0.479177	0.142363	0.026249	0.899538	-0.194311	-0.390367	164.002279	43.796453	-30.844263	0.619714	-0.370073	-0.692098	-0.329087	-0.923109	0.198928	-0.712500	0.104482	-0.693850			
65333						-9.515040	-1.754896	-0.427221	-4.982341	5.084793	-3.246212	1.333864	-0.715878	-0.073027	0.019376	0.898338	-0.196674	-0.392343	164.700024	44.210080	-30.943251	0.614773	-0.368564	-0.697291	-0.338156	-0.921888	0.189141	-0.712535	0.119514	-0.691383			
65334						-9.352850	-1.310208	-0.227109	-5.113133	4.608488	-3.342698	1.065289	-0.965244	-0.279653	0.013117	0.896810	-0.197599	-0.395618	165.320190	44.781525	-30.926918	0.608881	-0.364797	-0.704405	-0.344039	-0.921565	0.179875	-0.714773	0.132820	-0.686628			
65335						-9.192814	-0.744238	-0.303332	-5.088743	3.968679	-3.216729	0.657738	-1.233517	-0.488730	0.007938	0.894843	-0.196786	-0.400584	165.794688	45.544642	-30.793685	0.601615	-0.358545	-0.713796	-0.345826	-0.922425	0.171865	-0.720044	0.143453	-0.678938			
65336						-9.052254	-0.203918	-0.422445	-5.031945	3.331700	-3.049498	0.178215	-1.503056	-0.724587	0.004234	0.892534	-0.193957	-0.407120	166.095546	46.476646	-30.515159	0.593269	-0.349673	-0.725094	-0.342779	-0.924726	0.165485	-0.728379	0.150370	-0.668471			
65337						-8.959462	0.004105	-0.873301	-4.631018	2.942988	-2.676553	-0.290014	-1.766193	-0.973681	0.001782	0.889797	-0.189048	-0.415354	166.254278	47.602794	-30.076172	0.583483	-0.337909	-0.738488	-0.334949	-0.928515	0.160215	-0.739836	0.153873	-0.654955			
65338						-8.999379	-0.064787	-1.109253	-4.352723	2.864666	-2.391951	-0.679717	-2.001930	-1.239510	0.000363	0.886751	-0.182129	-0.424854	166.331382	48.881213	-29.448540	0.572656	-0.323315	-0.753348	-0.322698	-0.933658	0.155400	-0.753612	0.154113	-0.638998			
65339						-9.094496	-0.132446	-1.439269	-4.012813	2.763567	-1.998969	-0.973594	-2.239415	-1.497789	-0.000599	0.883228	-0.173401	-0.435707	166.402185	50.341729	-28.628496	0.560183	-0.305783	-0.769865	-0.306827	-0.939863	0.150046	-0.769449	0.152163	-0.620318			
65340						-9.321911	-0.142163	-1.628942	-3.847834	2.645613	-1.581016	-1.194756	-2.462302	-1.752808	-0.001253	0.879285	-0.163031	-0.447525	166.517712	51.944245	-27.598994	0.546286	-0.285579	-0.787411	-0.287822	-0.946839	0.143717	-0.786594	0.148124	-0.599441			
65341						-9.569887	-0.049442	-1.948834	-3.586855	2.385044	-1.047916	-1.330532	-2.675357	-2.005558	-0.002137	0.874757	-0.151184	-0.460368	166.768287	53.713318	-26.333592	0.530410	-0.262532	-0.806066	-0.266466	-0.954277	0.135463	-0.804774	0.142939	-0.576114			
65342						-9.973688	0.381184	-2.236362	-3.479233	1.812003	-0.366952	-1.388326	-2.882254	-2.261880	-0.003426	0.869695	-0.138039	-0.473881	167.227873	55.609846	-24.793193	0.512764	-0.236856	-0.825211	-0.243351	-0.961867	0.124868	-0.823319	0.136788	-0.550850			
65343						-10.352688	1.068094	-2.605426	-3.282009	0.925488	0.359082	-1.420469	-3.064546	-2.491351	-0.005338	0.863941	-0.123743	-0.488124	167.965960	57.644252	-22.940975	0.492846	-0.208602	-0.844742	-0.219024	-0.969318	0.111580	-0.842099	0.130027	-0.523413			
65344						-10.889919	1.850453	-2.817916	-3.231047	-0.048200	1.118660	-1.475346	-3.225430	-2.681970	-0.007483	0.857572	-0.108443	-0.502747	168.988065	59.758079	-20.753874	0.470971	-0.178471	-0.863907	-0.193520	-0.976368	0.096204	-0.860661	0.121873	-0.494379			
65345						-11.500488	2.810351	-3.046789	-3.132038	-1.242161	1.937414	-1.556709	-3.365175	-2.834807	-0.009829	0.850425	-0.092198	-0.517861	170.353524	61.959602	-18.175271	0.446639	-0.146634	-0.882616	-0.166995	-0.982806	0.078773	-0.878991	0.112209	-0.463447			
65346						-12.143132	3.618899	-3.486645	-2.723430	-2.355941	2.824959	-1.672511	-3.475080	-2.939661	-0.011907	0.842634	-0.075172	-0.533081	172.071105	64.181058	-15.172626	0.420347	-0.113990	-0.900175	-0.139381	-0.988415	0.060079	-0.896594	0.100213	-0.431365			
65347						-12.694973	4.250301	-3.989405	-2.074927	-3.346958	3.588739	-1.819779	-3.551189	-2.984210	-0.013593	0.834084	-0.057482	-0.548467	174.206823	66.419164	-11.678977	0.391760	-0.080980	-0.916497	-0.110800	-0.993022	0.040379	-0.913371	0.085729	-0.397999			
65348						-12.987844	4.620714	-4.371888	-1.309818	-4.092285	3.994759	-1.998536	-3.581669	-2.967519	-0.014401	0.825004	-0.039367	-0.563570	176.762636	68.595812	-7.672328	0.361678	-0.048723	-0.931029	-0.081188	-0.996486	0.020609	-0.928761	0.068134	-0.364362			
65349						-13.045179	5.021586	-4.836796	-0.315185	-4.859547	4.152660	-2.195115	-3.565721	-2.895273	-0.014258	0.815360	-0.020926	-0.578400	179.834237	70.700801	-3.057897	0.330031	-0.017631	-0.943806	-0.050618	-0.998718	0.000956	-0.942612	0.047458	-0.330500			
65350						-13.026126	5.429944	-5.387906	0.833097	-5.580848	4.198400	-2.354529	-3.533226	-2.799524	-0.013102	0.805362	-0.002447	-0.592634	-176.495189	72.675474	2.230305	0.297558	0.011589	-0.954633	-0.019471	-0.999645	-0.018204	-0.954505	0.024005	-0.297227			
65351						-12.790904	5.796130	-6.204119	2.341489	-6.189266	4.038680	-2.465748	-3.489324	-2.684903	-0.011209	0.794901	0.015952	-0.606426	-171.993422	74.523376	8.394438	0.263986	0.038956	-0.963739	0.011766	-0.999240	-0.037168	-0.964455	-0.001527	-0.264244			
65352						-12.393521	5.853190	-7.214388	4.084346	-6.373762	3.698710	-2.528243	-3.439445	-2.531879	-0.008543	0.784191	0.033868	-0.619536	-166.589463	76.189351	15.477662	0.230057	0.063704	-0.971090	0.042532	-0.997560	-0.055364	-0.972247	-0.028566	-0.232205			
65353						-11.815867	5.511174	-8.344753	5.936685	-6.027552	3.149158	-2.372905	-3.359782	-2.328931	-0.005907	0.773213	0.050541	-0.632102	-160.016277	77.661230	23.622039	0.195786	0.085626	-0.976901	0.070691	-0.994821	-0.073030	-0.978095	-0.054760	-0.200825			
65354						-10.853599	5.131848	-9.818101	8.104962	-5.465129	2.226471	-2.218147	-3.190681	-2.040240	-0.002957	0.762517	0.065522	-0.643635	-152.604621	78.865791	32.490640	0.162882	0.103730	-0.981178	0.096117	-0.991396	-0.088854	-0.981953	-0.079835	-0.171451			
65355						-9.864925	2.630708	-12.255350	10.874840	-2.593235	1.563652	-1.796453	-2.898302	-1.741092	-0.000773	0.752454	0.078028	-0.654006	-144.468898	79.768528	41.819139	0.132376	0.118437	-0.984098	0.116414	-0.987822	-0.103226	-0.984340	-0.100898	-0.144552			
65356						-8.715013	6.283446	-8.902412	8.488159	-6.345752	-0.737725	-0.527699	-2.501490	-1.395959	-0.002363	0.743677	0.085010	-0.663108	-136.042466	80.358401	50.681933	0.106122	0.129573	-0.985875	0.123306	-0.985536	-0.116255	-0.986678	-0.109227	-0.120565			
65357						-7.568222	8.493631	-7.740200	8.018612	-8.475232	-2.519392	-0.892812	-2.291453	-0.913823	-0.001103	0.735598	0.091436	-0.671218	-128.500237	80.855898	58.847673	0.082211	0.136001	-0.987292	0.133039	-0.983277	-0.124370	-0.987695	-0.121124	-0.098929			
65358						-7.058014	6.342542	-10.084616	10.333964	-5.905992	-2.737217	-1.197257	-1.977385	-0.582333	0.002263	0.728675	0.097603	-0.677865	-122.116307	81.237627	66.006249	0.061946	0.139173	-0.988329	0.145311	-0.980937	-0.129025	-0.987445	-0.135622	-0.080988			
65359						-7.577727	4.187117	-9.620070	9.721756	-3.799064	-2.160956	-1.143882	-1.568561	-0.536393	0.005391	0.723018	0.103454	-0.683017	-116.617533	81.410411	72.235674	0.045569	0.142234	-0.988784	0.156963	-0.978536	-0.133527	-0.986553	-0.149118	-0.066916			
65360						-7.345446	3.504606	-8.265563	8.433292	-3.204701	-2.521324	-0.950641	-1.307940	-0.573108	0.007560	0.718229	0.108737	-0.687216	-111.771374	81.417266	77.689240	0.031819	0.145806	-0.988801	0.166587	-0.976238	-0.138592	-0.985513	-0.160311	-0.055353			
65361						-6.762548	4.144347	-7.208781	7.631148	-3.848922	-3.345552	-0.887322	-0.995193	-0.599661	0.009244	0.714415	0.113933	-0.690323	-107.970988	81.287095	82.051515	0.020948	0.150028	-0.988460	0.175553	-0.973868	-0.144093	-0.984247	-0.170509	-0.046738			
65362						-6.627945	5.038272	-6.463179	7.153474	-4.769017	-3.716011	-1.110548	-0.650517	-0.591053	0.011554	0.711790	0.119848	-0.691996	-105.705498	81.070649	84.989735	0.013556	0.154623	-0.987880	0.186604	-0.971006	-0.149422	-0.982342	-0.182317	-0.042016			
65363						-6.701642	5.239300	-6.458827	7.277001	-4.903240	-3.723284	-1.502653	-0.345857	-0.560131	0.015196	0.710141	0.127044	-0.692336	-104.835998	80.813145	86.746316	0.009062	0.159397	-0.987173	0.201479	-0.967258	-0.154332	-0.979451	-0.197496	-0.040880			
65364						-6.515551	4.391154	-8.361926	9.050344	-3.547814	-3.716965	-2.247150	-0.067355	-0.538669	0.021364	0.709373	0.136726	-0.691114	-105.434287	80.525203	87.446513	0.007334	0.164450	-0.986358	0.223509	-0.961699	-0.158677	-0.974674	-0.219297	-0.043809			
65365						-6.291683	0.949252	-11.845207	11.680450	0.775238	-3.197906	-2.550746	0.385648	-0.567728	0.028216	0.709989	0.147603	-0.687992	-107.607616	80.151312	86.728829	0.009760	0.170768	-0.985263	0.248417	-0.954835	-0.163033	-0.968604	-0.243165	-0.051741			
65366						-5.803406	4.436906	-13.959881	14.553970	-1.710867	-4.025446	-2.116230	0.872307	-0.565016	0.033150	0.712250	0.157006	-0.683337	-110.898964	79.680410	84.619139	0.016799	0.178349	-0.983824	0.268960	-0.948501	-0.167353	-0.963005	-0.261798	-0.063903			
65367						-4.582018	11.732245	-10.543373	13.248543	-9.131131	-6.511419	-1.213739	1.539571	-0.167621	0.035713	0.717171	0.162000	-0.676865	-115.773480	79.242823	80.371114	0.031220	0.184018	-0.982427	0.280709	-0.944961	-0.168079	-0.959285	-0.270529	-0.081157			
65368						-7.596235	12.520497	0.740713	2.710176	-13.387491	-4.480098	-3.626655	1.980507	0.445809	0.048624	0.723457	0.172998	-0.666571	-123.637277	78.900772	74.480396	0.051509	0.185490	-0.981295	0.315136	-0.935415	-0.160275	-0.947648	-0.300986	-0.106637			
65369						-13.155632	3.539489	-0.367520	0.784540	-5.614355	2.580737	-6.123080	1.524065	0.219889	0.070217	0.726907	0.192890	-0.655339	-131.036315	78.472652	70.518007	0.066647	0.188394	-0.979829	0.372457	-0.915726	-0.150735	-0.925653	-0.354899	-0.131200			
65370						-15.679255	0.316345	-3.370498	2.132170	-1.995396	5.959738	-5.369131	0.546631	-0.222276	0.088457	0.726358	0.211416	-0.647984	-134.822047	78.164030	69.795310	0.070840	0.192489	-0.978739	0.421765	-0.894957	-0.145485	-0.903934	-0.402491	-0.144584			
65371						-9.631681	-1.023395	-5.076958	3.413514	1.167144	0.510842	-3.608987	0.197953	-0.189487	0.100793	0.725109	0.223849	-0.643389	-136.932760	78.008647	69.757862	0.071884	0.194932	-0.978179	0.454328	-0.879465	-0.141873	-0.887929	-0.434216	-0.151783			
65372						-5.546297	1.400173	-6.909386	6.336152	0.743957	-3.507181	-1.691707	0.527746	0.428731	0.107719	0.726427	0.228000	-0.639309	-139.725823	77.943658	67.894923	0.078600	0.193520	-0.977943	0.468983	-0.872825	-0.135025	-0.879703	-0.448025	-0.159362			
65373						-9.495621	3.691434	-5.355310	5.632392	-2.616298	-0.122420	-0.847590	0.922773	1.069825	0.113221	0.730149	0.227306	-0.634346	-144.034875	77.906326	63.990475	0.091875	0.188292	-0.977806	0.475578	-0.871026	-0.123044	-0.874863	-0.453718	-0.169573			
65374						-12.148771	5.682214	-2.232767	3.472705	-6.178509	1.790284	0.286564	0.366566	1.312038	0.115926	0.732971	0.221816	-0.632544	-147.375651	78.153641	60.409408	0.101371	0.178514	-0.978702	0.471826	-0.874718	-0.110677	-0.875845	-0.450558	-0.172898			
65375						-9.551236	-0.581623	-4.346616	2.540025	0.816437	0.352845	0.747458	-0.029041	1.549382	0.118186	0.735041	0.213738	-0.632506	-150.661891	78.624748	56.623590	0.108506	0.164705	-0.980356	0.463719	-0.880696	-0.096637	-0.879313	-0.444124	-0.171937			
65376						-8.996482	-1.872971	-4.072004	1.737561	2.001513	-0.117300	1.852208	0.126793	1.306603	0.115377	0.737908	0.203147	-0.633175	-153.114705	78.910370	53.042697	0.115641	0.153699	-0.981327	0.445915	-0.890839	-0.086979	-0.887573	-0.427530	-0.171555			
65377						-10.796462	-1.048738	-2.051201	0.099564	0.178671	1.224921	2.170113	0.074396	0.870492	0.110109	0.740272	0.193079	-0.634503	-154.324740	79.090915	50.548661	0.120254	0.146133	-0.981929	0.425590	-0.901194	-0.081997	-0.896890	-0.408038	-0.170565			
65378						-12.687738	-0.645215	-1.801585	-0.191663	-0.516365	3.006719	1.731145	0.052804	0.595398	0.105544	0.741960	0.185411	-0.635593	-155.024923	79.206189	48.827542	0.123288	0.140968	-0.982307	0.409301	-0.908967	-0.079072	-0.904031	-0.392311	-0.169763			
65379						-15.374352	1.874329	-1.163734	-0.095164	-3.396292	5.342973	0.994646	-0.005731	0.369985	0.103100	0.742843	0.180856	-0.636275	-155.518324	79.295257	47.750519	0.124890	0.137495	-0.982597	0.399895	-0.913323	-0.076974	-0.908013	-0.383322	-0.169048			
65380						-13.297882	4.110771	0.098703	-0.099934	-5.585144	2.936332	-0.453696	-0.194982	0.469483	0.106465	0.742432	0.180460	-0.636313	-156.868058	79.502679	46.643554	0.125080	0.132469	-0.983263	0.403449	-0.912199	-0.071573	-0.906413	-0.387744	-0.167542			
65381						-10.487394	1.931107	-0.514858	-0.062071	-2.905981	0.460112	-1.829153	-0.112832	0.654481	0.115514	0.741692	0.183769	-0.634648	-159.745021	79.699287	44.790795	0.126902	0.125978	-0.983883	0.419222	-0.905771	-0.061905	-0.898971	-0.404609	-0.167757			
65382						-11.182640	-0.068151	-1.920373	0.259894	-0.523128	1.518766	-2.302351	-0.066215	0.508170	0.125728	0.740591	0.189146	-0.632410	-162.536514	79.825725	43.296379	0.128563	0.121137	-0.984275	0.439182	-0.896833	-0.053010	-0.889151	-0.425461	-0.168501			
65383						-11.207531	-1.750516	-2.132908	-0.336763	1.156842	1.666426	-2.024276	-0.222291	0.359572	0.134649	0.738950	0.194054	-0.631004	-164.667440	80.003676	42.317201	0.128354	0.116863	-0.984819	0.456720	-0.888426	-0.045900	-0.880302	-0.443895	-0.167407			
65384						-9.530641	-3.204338	-2.513541	-0.495738	2.878857	0.131393	-1.221493	-0.260236	0.437499	0.140802	0.737737	0.196119	-0.630441	-166.560367	80.206643	41.107869	0.128162	0.111834	-0.985428	0.466903	-0.883424	-0.039534	-0.874972	-0.455032	-0.165437			
65385						-8.650254	-2.600866	-2.716082	0.048071	2.591787	-0.743585	-0.136015	-0.181359	0.502162	0.143141	0.737594	0.194554	-0.630567	-168.206617	80.367679	39.523144	0.129069	0.106484	-0.985902	0.467525	-0.883318	-0.034198	-0.874507	-0.456519	-0.163793			
65386						-9.341762	-0.714185	-2.298190	0.472023	0.704245	-0.203246	0.593672	-0.169302	0.485554	0.142656	0.737974	0.190777	-0.631385	-169.387662	80.513043	37.982273	0.129914	0.101435	-0.986323	0.461719	-0.886507	-0.030354	-0.877461	-0.451461	-0.162004			
65387						-10.057066	1.212186	-2.212999	1.194532	-1.080953	0.430160	0.749044	-0.222959	0.401845	0.141444	0.738218	0.186754	-0.632574	-170.249987	80.675399	36.678845	0.129945	0.096784	-0.986786	0.454678	-0.890233	-0.027439	-0.881125	-0.445104	-0.159687			
65388						-10.598738	2.292448	-1.960018	1.393754	-2.178952	0.898978	0.485122	-0.268847	0.333080	0.140967	0.738041	0.183807	-0.633750	-170.987936	80.854586	35.651343	0.129152	0.092639	-0.987288	0.449990	-0.892686	-0.024897	-0.883645	-0.441054	-0.156979			
65389						-10.507512	2.870543	-1.574338	1.332743	-2.817573	0.742465	-0.043743	-0.324034	0.315386	0.142501	0.737309	0.182537	-0.634625	-172.027917	81.060510	34.629528	0.127863	0.088304	-0.987853	0.450042	-0.892748	-0.021551	-0.883806	-0.441819	-0.153890			
65390						-9.891751	2.288048	-1.606118	1.197812	-2.176412	0.161762	-0.652334	-0.373667	0.316697	0.146261	0.735964	0.183180	-0.635146	-173.398086	81.291941	33.622928	0.126071	0.083834	-0.988473	0.455421	-0.890106	-0.017406	-0.881305	-0.447977	-0.150396			
65391						-9.629162	0.881943	-1.774354	0.762289	-0.765007	-0.041289	-1.078072	-0.411891	0.265499	0.151528	0.734135	0.185305	-0.635411	-174.929386	81.537627	32.705317	0.123829	0.079513	-0.989113	0.464642	-0.885403	-0.013006	-0.876797	-0.457973	-0.146584			
65392						-9.935774	-0.776125	-2.177901	0.324206	0.922678	0.341548	-1.158273	-0.442061	0.192645	0.156808	0.732039	0.187947	-0.635772	-176.222013	81.794645	32.071361	0.120940	0.075782	-0.989763	0.474558	-0.880174	-0.009404	-0.871876	-0.468563	-0.142411			
65393						-10.091449	-1.689555	-2.090136	-0.195189	1.726485	0.484961	-0.896195	-0.459002	0.168823	0.161135	0.730064	0.189798	-0.636411	-177.386097	82.057657	31.420304	0.117915	0.072033	-0.990408	0.482225	-0.876025	-0.006302	-0.868076	-0.476856	-0.138033			
65394						-9.943087	-1.351133	-1.513601	-0.500271	1.211141	0.250324	-0.553523	-0.451876	0.207026	0.164252	0.728394	0.190447	-0.637334	-178.510171	82.316575	30.607556	0.115072	0.068074	-0.991022	0.486807	-0.873503	-0.003476	-0.865897	-0.482036	-0.133654			
65395						-9.757575	-0.704779	-0.921498	-0.657794	0.418264	-0.017367	-0.332935	-0.434795	0.243676	0.166729	0.727001	0.190243	-0.638340	-179.798530	82.562309	29.505794	0.112659	0.063755	-0.991586	0.489474	-0.872018	-0.000455	-0.864710	-0.485304	-0.129447			
65396						-9.603698	-0.033800	-0.273414	-0.851896	-0.429573	-0.252537	-0.275561	-0.396979	0.261216	0.168952	0.725773	0.189850	-0.639270	178.855243	82.784415	28.309409	0.110581	0.059565	-0.992081	0.491588	-0.870824	0.002509	-0.863778	-0.487972	-0.125578			
65397						-9.371013	0.197984	0.214033	-1.116953	-0.815653	-0.539722	-0.305191	-0.332950	0.268078	0.171306	0.724739	0.189553	-0.639904	177.326990	82.964324	26.950938	0.109185	0.055515	-0.992470	0.493992	-0.869448	0.005712	-0.862584	-0.490896	-0.122354			
65398						-9.200153	0.682672	0.774815	-1.330572	-1.469302	-0.769468	-0.397985	-0.237803	0.268447	0.173842	0.723911	0.189659	-0.640126	175.768379	83.086912	25.612175	0.108537	0.052030	-0.992730	0.497153	-0.867617	0.008881	-0.860847	-0.494503	-0.120035			
65399						-9.117934	1.184759	1.037496	-1.290630	-2.001547	-0.871502	-0.591690	-0.142540	0.269976	0.177060	0.723225	0.190435	-0.639789	174.017781	83.148880	24.196278	0.108810	0.048893	-0.992859	0.502017	-0.864769	0.012432	-0.857986	-0.499785	-0.118640			
65400						-9.051987	1.162823	0.730630	-1.026744	-1.802321	-0.895186	-0.827690	-0.046669	0.260993	0.180941	0.722607	0.192105	-0.638902	172.274293	83.153385	22.919639	0.109800	0.046426	-0.992869	0.508840	-0.860712	0.016026	-0.853830	-0.506971	-0.118130			
65401						-9.309391	0.851799	0.400734	-0.934861	-1.358255	-0.602255	-0.977813	0.047971	0.248040	0.185302	0.722132	0.194361	-0.637505	170.508454	83.099471	21.712000	0.111622	0.044447	-0.992756	0.516970	-0.855774	0.019812	-0.848694	-0.515437	-0.118501			
65402						-9.716349	0.767506	0.104642	-0.783795	-1.134269	-0.163515	-0.988677	0.113710	0.234169	0.189515	0.721818	0.196779	-0.635878	168.949344	83.007218	20.713762	0.113875	0.043061	-0.992561	0.525094	-0.850724	0.023336	-0.843391	-0.523846	-0.119487			
65403						-10.023021	0.806372	-0.322680	-0.456670	-0.937859	0.193666	-0.952606	0.148385	0.237230	0.193646	0.721635	0.199080	-0.634122	167.397868	82.890739	19.707611	0.116513	0.041735	-0.992312	0.532917	-0.845737	0.027002	-0.838108	-0.531966	-0.120780			
65404						-10.018954	0.493478	-0.849198	-0.206705	-0.373821	0.245221	-0.887726	0.172554	0.242380	0.197454	0.721578	0.201194	-0.632344	165.993870	82.758339	18.806920	0.119325	0.040637	-0.992023	0.540072	-0.841066	0.030508	-0.833117	-0.539405	-0.122307			
65405						-9.866923	-0.054957	-1.708220	0.197793	0.578813	0.182457	-0.811693	0.173899	0.237101	0.201044	0.721579	0.203066	-0.630610	164.634297	82.622008	17.912488	0.122190	0.039496	-0.991721	0.546617	-0.836691	0.034027	-0.828420	-0.546249	-0.123824			
65406						-9.590725	0.090023	-2.145163	0.638025	0.727806	-0.032353	-0.683787	0.172461	0.210647	0.204008	0.721666	0.204644	-0.629047	163.560264	82.489682	17.226186	0.124842	0.038708	-0.991421	0.552031	-0.833003	0.036990	-0.824425	-0.551913	-0.125361			
65407						-9.902202	0.588658	-1.941821	0.674849	0.208934	0.270548	-0.646810	0.163936	0.190204	0.206857	0.721734	0.206148	-0.627546	162.549597	82.362187	16.587532	0.127379	0.037943	-0.991128	0.557192	-0.829427	0.039857	-0.820556	-0.557325	-0.126794			
65408						-10.176288	0.658395	-1.917299	0.631553	0.147790	0.543256	-0.691689	0.115549	0.190567	0.209840	0.721594	0.207759	-0.626184	161.535035	82.261331	15.965424	0.129461	0.037038	-0.990893	0.562631	-0.825607	0.042649	-0.816508	-0.563028	-0.127723			
65409						-9.975773	0.497434	-1.779172	0.429896	0.232739	0.320915	-0.608885	0.089017	0.173014	0.212569	0.721433	0.209121	-0.624994	160.562631	82.174682	15.342895	0.131301	0.036026	-0.990688	0.567442	-0.822166	0.045309	-0.812877	-0.568107	-0.128393			
65410						-9.713580	0.612326	-1.447215	0.240509	-0.024154	0.024210	-0.469639	0.079497	0.142079	0.214632	0.721349	0.210170	-0.624033	159.851447	82.100060	14.898355	0.132823	0.035337	-0.990510	0.571088	-0.819523	0.047343	-0.810072	-0.571956	-0.129032			
65411						-9.821448	1.307404	-1.204950	0.412207	-0.720348	0.133829	-0.468310	0.058083	0.132829	0.216756	0.721188	0.211202	-0.623136	159.099155	82.035786	14.416344	0.134192	0.034495	-0.990355	0.574770	-0.816821	0.049430	-0.807237	-0.575859	-0.129438			
65412						-9.917249	1.073278	-1.696815	0.649986	-0.233670	0.282154	-0.429189	0.046797	0.124893	0.218653	0.721020	0.212149	-0.622346	158.448814	81.980701	14.009703	0.135357	0.033773	-0.990221	0.578083	-0.814368	0.051245	-0.804673	-0.579366	-0.129754			
65413						-10.002491	0.917370	-1.736384	0.567806	-0.071234	0.364685	-0.334828	0.037836	0.103427	0.220224	0.720903	0.212846	-0.621689	157.869603	81.931936	13.625099	0.136400	0.033062	-0.990102	0.580704	-0.812396	0.052872	-0.802607	-0.582168	-0.130010			
65414						-9.793206	1.435309	-1.636409	0.808197	-0.532481	0.172707	-0.219127	0.022628	0.074770	0.221231	0.720832	0.213293	-0.621260	157.501720	81.899507	13.382096	0.137084	0.032613	-0.990022	0.582381	-0.811126	0.053920	-0.801275	-0.583961	-0.130185			
65415						-9.780759	2.365170	-1.278064	1.059141	-1.487283	0.165135	-0.166410	0.024246	0.029808	0.221980	0.720779	0.213715	-0.620910	157.278560	81.873335	13.259488	0.137593	0.032423	-0.989958	0.583741	-0.810102	0.054601	-0.800197	-0.585391	-0.130391			
65416						-10.005879	3.092896	-0.767174	1.044999	-2.378054	0.362036	-0.330603	0.029539	-0.008067	0.223123	0.720514	0.214813	-0.620428	157.166993	81.855358	13.339898	0.137850	0.032688	-0.989914	0.586416	-0.808143	0.054976	-0.798194	-0.588079	-0.130571			
65417						-9.909624	2.422810	-0.773749	0.676098	-1.821887	0.231861	-0.553486	0.020107	-0.037646	0.225065	0.719939	0.216672	-0.619748	156.962277	81.846340	13.460292	0.137933	0.033014	-0.989891	0.590948	-0.804798	0.055503	-0.794830	-0.592630	-0.130517			
65418						-9.686337	1.158180	-0.649211	-0.132697	-0.865828	-0.075095	-0.743417	0.024402	-0.064081	0.227524	0.719124	0.219242	-0.618891	156.812618	81.843740	13.741167	0.137813	0.033700	-0.989885	0.596950	-0.800331	0.055861	-0.790353	-0.598610	-0.130413			
65419						-9.699324	-1.443307	-1.723965	-0.844558	1.860814	-0.068143	-0.733804	0.029987	-0.043698	0.230082	0.718350	0.221687	-0.617972	156.540453	81.831218	13.898089	0.137930	0.034129	-0.989854	0.602867	-0.795834	0.056566	-0.785828	-0.604553	-0.130345			
65420						-9.869254	-2.632523	-1.934637	-1.436121	2.925625	0.059162	-0.350844	0.063283	-0.004412	0.231267	0.718157	0.222870	-0.617329	156.458525	81.794830	14.020174	0.138467	0.034575	-0.989763	0.605648	-0.793688	0.057003	-0.783593	-0.607341	-0.130840			
65421						-10.441921	-1.779938	-1.872972	-1.063087	2.187812	0.665539	0.024863	0.124397	0.032847	0.231223	0.718628	0.222805	-0.616821	156.496062	81.715395	14.050212	0.139780	0.034981	-0.989565	0.605474	-0.793788	0.057465	-0.783494	-0.607188	-0.132136			
65422						-10.630414	-0.403583	-1.595093	-0.487887	0.915034	0.894206	0.066836	0.134081	0.064404	0.231041	0.719210	0.222533	-0.616308	156.514770	81.626088	14.032188	0.141287	0.035311	-0.989339	0.604881	-0.794198	0.058036	-0.783682	-0.606632	-0.133569			
65423						-9.725760	0.174612	-1.429942	-0.156052	0.384771	0.010409	0.063236	0.140388	0.073547	0.230961	0.719820	0.222221	-0.615738	156.457183	81.528988	13.943445	0.142968	0.035496	-0.989091	0.604342	-0.794549	0.058840	-0.783793	-0.606161	-0.135047			
65424						-8.960841	0.366940	-1.153598	-0.163692	0.085525	-0.772335	0.005253	0.204685	0.042706	0.230855	0.720524	0.222299	-0.614927	156.624014	81.407527	14.110873	0.144897	0.036425	-0.988776	0.604261	-0.794579	0.059279	-0.783501	-0.606068	-0.137142			
65425						-9.129590	1.198633	-0.749137	-0.021851	-0.836104	-0.612266	-0.090355	0.261756	0.011957	0.231002	0.721260	0.222821	-0.613819	156.871739	81.260564	14.419833	0.147155	0.037837	-0.988390	0.605010	-0.793978	0.059681	-0.782501	-0.606768	-0.139729			
65426						-10.105584	0.828056	-0.537139	-0.575844	-0.721399	0.298937	-0.345046	0.277009	-0.014102	0.231903	0.721714	0.224261	-0.612419	157.123902	81.113486	14.876844	0.149300	0.039661	-0.987996	0.607748	-0.791856	0.060052	-0.779969	-0.609418	-0.142328			
65427						-10.941149	-0.401210	-1.308174	-0.869806	0.675076	1.158578	-0.609411	0.229822	-0.042277	0.233791	0.721680	0.226532	-0.610903	157.193979	80.995348	15.307527	0.150962	0.041320	-0.987676	0.612614	-0.788050	0.060667	-0.775831	-0.614223	-0.144279			
65428						-10.783503	-1.534768	-2.049934	-0.990668	2.015904	1.040713	-0.769498	0.157340	-0.102552	0.236083	0.721160	0.229445	-0.609548	157.314581	80.930789	15.877855	0.151613	0.043125	-0.987499	0.618741	-0.783239	0.060792	-0.770826	-0.620223	-0.145433			
65429						-10.178433	-2.165106	-2.851722	-0.700789	3.018265	0.522658	-0.912466	0.135969	-0.199664	0.238679	0.720280	0.233092	-0.608191	157.594997	80.896759	16.697256	0.151543	0.045457	-0.987405	0.626108	-0.777401	0.060303	-0.764868	-0.627361	-0.146271			
65430						-10.379694	-1.667977	-2.577284	-0.658212	2.428124	0.715059	-1.133189	0.155613	-0.339700	0.241551	0.719012	0.237953	-0.606674	158.280759	80.883093	18.051124	0.150651	0.049098	-0.987367	0.635267	-0.770063	0.058636	-0.757456	-0.636076	-0.147201			
65431						-10.866457	-0.789240	-2.233711	-0.452334	1.480003	1.200811	-1.640036	0.136161	-0.506787	0.245803	0.716837	0.244893	-0.604775	159.165784	80.909993	19.904281	0.148548	0.053786	-0.987441	0.648408	-0.759217	0.056190	-0.746660	-0.648612	-0.147656			
65432						-10.937908	0.477677	-1.792120	0.033109	0.202222	1.279456	-2.431494	0.079259	-0.646015	0.252456	0.713260	0.254650	-0.602229	160.051085	80.992260	22.213218	0.144948	0.059191	-0.987667	0.667335	-0.742839	0.053418	-0.730516	-0.666848	-0.147173			
65433						-10.518232	1.081631	-1.950331	0.639959	-0.117222	0.919670	-3.321833	-0.005072	-0.753821	0.262063	0.708010	0.267284	-0.598836	160.687499	81.134808	24.789002	0.139910	0.064615	-0.988054	0.692345	-0.719765	0.050967	-0.707873	-0.691205	-0.145438			
65434						-9.802459	0.783855	-2.492405	0.941726	0.544769	0.273489	-4.092424	-0.036215	-0.843813	0.274021	0.701277	0.282429	-0.594438	161.258632	81.307931	27.741263	0.133754	0.070345	-0.988515	0.721900	-0.690292	0.048556	-0.678948	-0.720103	-0.143111			
65435						-9.208771	0.043175	-3.001347	0.818347	1.504874	-0.279754	-4.607694	-0.031346	-0.911653	0.287494	0.693411	0.299184	-0.589082	161.811850	81.485588	30.975422	0.126943	0.076201	-0.988979	0.753630	-0.655672	0.046215	-0.644924	-0.751191	-0.140661			
65436						-8.615409	-0.079939	-3.967906	1.362126	2.408136	-0.739623	-4.783601	0.034495	-0.967433	0.301096	0.685003	0.316599	-0.582990	162.668313	81.631745	34.613858	0.119775	0.082670	-0.989353	0.784815	-0.618212	0.043355	-0.608046	-0.781652	-0.138927			
65437						-7.940482	0.721224	-5.137354	2.675858	2.975365	-1.213369	-4.920164	0.162136	-1.002749	0.314723	0.676289	0.334501	-0.575927	163.743370	81.704225	38.553216	0.112834	0.089923	-0.989536	0.814953	-0.578117	0.040391	-0.568436	-0.810983	-0.138514			
65438						-7.853264	0.801413	-5.542285	2.840378	3.385857	-1.239592	-4.991333	0.323636	-1.034286	0.327981	0.667435	0.352783	-0.567894	165.132569	81.680405	42.849065	0.106083	0.098402	-0.989476	0.843436	-0.535945	0.037126	-0.526652	-0.838498	-0.139851			
65439						-8.624276	0.511970	-4.036089	1.592284	2.284345	-0.692618	-4.958716	0.430402	-1.072895	0.340657	0.658449	0.371009	-0.559240	166.707446	81.585888	47.314813	0.099205	0.107563	-0.989236	0.869599	-0.492611	0.033644	-0.483690	-0.863577	-0.142406			
65440						-9.233070	0.140284	-3.099390	0.671730	1.611226	-0.230004	-4.989127	0.464841	-1.072919	0.353109	0.649064	0.389174	-0.550068	168.258765	81.454879	51.775192	0.091939	0.116729	-0.988899	0.893665	-0.447716	0.030237	-0.439216	-0.886524	-0.145479			
65441						-9.166563	-0.630326	-3.401191	0.036049	2.209218	-0.267618	-4.971891	0.481265	-1.024429	0.365409	0.639441	0.406867	-0.540417	169.510722	81.292960	55.924221	0.084818	0.125390	-0.988475	0.915281	-0.401871	0.027559	-0.393784	-0.907071	-0.148853			
65442						-8.874806	-1.532401	-3.894987	-0.688343	2.998658	-0.495305	-4.670138	0.509374	-0.992838	0.376516	0.630099	0.423487	-0.530914	170.772048	81.098584	59.910046	0.077578	0.133883	-0.987956	0.933473	-0.357789	0.024814	-0.350158	-0.924155	-0.152732			
65443						-8.843967	-2.099935	-4.291844	-1.211941	3.483500	-0.461783	-4.096538	0.570624	-0.951783	0.385629	0.621784	0.438311	-0.522071	172.083549	80.852369	63.615356	0.070649	0.142418	-0.987282	0.947721	-0.318347	0.021896	-0.311180	-0.937215	-0.157464			
65444						-9.248025	-1.805994	-3.846421	-1.212312	2.810635	-0.106422	-3.425448	0.645524	-0.864040	0.392545	0.614887	0.451128	-0.514107	173.399296	80.543802	66.939186	0.064355	0.151165	-0.986411	0.958405	-0.284785	0.018885	-0.278060	-0.946597	-0.163205			
65445						-9.317251	-1.343484	-3.773192	-0.872080	2.500073	-0.022841	-2.827143	0.693231	-0.734962	0.397759	0.609435	0.461939	-0.506941	174.455171	80.189238	69.653354	0.059246	0.159763	-0.985376	0.966324	-0.256801	0.016464	-0.250415	-0.953168	-0.169597			
65446						-9.162765	-1.015425	-3.702436	-0.621990	2.283773	-0.164264	-2.230550	0.732575	-0.604295	0.401300	0.605431	0.470872	-0.500689	175.337261	79.797823	71.848589	0.055179	0.168308	-0.984189	0.972016	-0.234474	0.014398	-0.228344	-0.957441	-0.176536			
65447						-9.048430	-0.743357	-3.682410	-0.400984	2.137246	-0.259807	-1.678556	0.773569	-0.473570	0.403370	0.602902	0.478014	-0.495281	175.994673	79.372165	73.494600	0.052397	0.176829	-0.982846	0.975955	-0.217590	0.012882	-0.211579	-0.959889	-0.183978			
65448						-9.377626	-0.385917	-3.518551	-0.136989	1.763068	0.053478	-1.236713	0.801494	-0.368291	0.404256	0.601511	0.483805	-0.490605	176.534262	78.923579	74.767275	0.050477	0.185368	-0.981372	0.978689	-0.205019	0.011614	-0.199047	-0.961044	-0.191767			
65449						-9.597226	-0.190547	-3.283174	-0.028490	1.376285	0.238519	-0.891118	0.787693	-0.261422	0.404391	0.601047	0.488337	-0.486558	176.869874	78.477217	75.629528	0.049578	0.193507	-0.979845	0.980545	-0.195991	0.010908	-0.189930	-0.961323	-0.199460			
65450						-9.380234	-0.455152	-3.242168	-0.304836	1.352533	0.025240	-0.543700	0.774024	-0.153695	0.403753	0.601464	0.491696	-0.483177	177.087581	78.034936	76.171845	0.049551	0.201307	-0.978274	0.981643	-0.190437	0.010534	-0.184179	-0.960838	-0.207047			
65451						-9.032475	-0.909503	-3.167437	-0.763584	1.362750	-0.325598	-0.125605	0.748557	-0.068003	0.402129	0.602898	0.493687	-0.480708	177.264131	77.603856	76.425181	0.050386	0.208673	-0.976687	0.981898	-0.189131	0.010247	-0.182583	-0.959523	-0.214425			
65452						-9.010936	-1.153672	-3.262975	-0.991256	1.436477	-0.319083	0.354641	0.709671	-0.004511	0.399291	0.605316	0.494287	-0.479417	177.555024	77.193733	76.516825	0.051681	0.215546	-0.975125	0.981252	-0.192495	0.009456	-0.185669	-0.957332	-0.221453			
65453						-8.986286	-0.934392	-3.289212	-0.765086	1.361603	-0.325554	0.820888	0.679311	0.032719	0.395202	0.608707	0.493546	-0.479274	177.983001	76.799174	76.472298	0.053418	0.222029	-0.973576	0.979670	-0.200455	0.008038	-0.193374	-0.954212	-0.228223			
65454						-8.878367	-0.512740	-3.154840	-0.357329	1.112189	-0.449123	1.188173	0.645491	0.082142	0.390178	0.612806	0.491728	-0.480035	178.507657	76.424039	76.313601	0.055540	0.228069	-0.972060	0.977266	-0.211930	0.006113	-0.204615	-0.950300	-0.234655			
65455						-8.866010	-0.148796	-2.867401	-0.042535	0.704443	-0.520116	1.447214	0.608155	0.117194	0.384517	0.617411	0.489044	-0.481442	179.067768	76.069058	76.035356	0.058099	0.233637	-0.970587	0.974127	-0.225967	0.003917	-0.218405	-0.945702	-0.240720			
65456						-8.943012	0.115227	-2.619402	0.171928	0.332867	-0.500794	1.543707	0.548449	0.146987	0.378748	0.622054	0.485926	-0.483192	179.624882	75.749871	75.699618	0.060802	0.238528	-0.969230	0.970561	-0.240851	0.001612	-0.233056	-0.940795	-0.246150			
65457						-8.890667	-0.002500	-2.650541	0.080537	0.348519	-0.542242	1.552761	0.488317	0.182309	0.373158	0.626650	0.482493	-0.485039	-179.913772	75.464473	75.256119	0.063874	0.242716	-0.967992	0.966701	-0.255907	-0.000378	-0.247808	-0.935735	-0.250980			
65458						-8.889558	-0.298573	-3.230979	-0.043137	0.920451	-0.394444	1.649811	0.426019	0.197818	0.367424	0.631232	0.478663	-0.487265	-179.413507	75.217062	74.797921	0.066909	0.246229	-0.966899	0.962361	-0.271761	-0.002612	-0.263409	-0.930332	-0.255144			
65459						-8.912222	-0.140550	-3.191219	0.123340	0.789549	-0.379105	1.832990	0.407762	0.189475	0.361105	0.636073	0.474304	-0.489949	-178.808102	74.979596	74.336203	0.069972	0.249538	-0.965834	0.957230	-0.289278	-0.005391	-0.280740	-0.924148	-0.259107			
65460						-8.630430	0.120934	-3.240184	0.437858	0.779675	-0.636751	1.943195	0.413474	0.189227	0.354388	0.641028	0.469678	-0.492843	-178.125162	74.741716	73.892079	0.073016	0.252839	-0.964749	0.951469	-0.307623	-0.008610	-0.298956	-0.917301	-0.263030			
65461						-8.465237	0.758224	-3.119965	1.049194	0.455222	-0.831548	1.967271	0.436080	0.170386	0.347455	0.646013	0.465009	-0.495690	-177.410823	74.490069	73.462301	0.076116	0.256344	-0.963584	0.945264	-0.326084	-0.012080	-0.317306	-0.909922	-0.267132			
65462						-8.559494	1.792191	-2.696172	1.902343	-0.363870	-0.868728	1.646486	0.457098	0.125456	0.341371	0.650291	0.461313	-0.497773	-176.777895	74.228219	73.141704	0.078825	0.260125	-0.962352	0.939825	-0.341313	-0.015277	-0.332438	-0.903239	-0.271377			
65463						-8.851871	1.995608	-2.871455	2.132183	-0.422936	-0.546734	1.014061	0.439320	0.060557	0.337200	0.653305	0.459307	-0.498523	-176.394786	73.973127	72.934150	0.081024	0.263931	-0.961132	0.936340	-0.350666	-0.017361	-0.341618	-0.898540	-0.275542			
65464						-9.140582	0.796558	-3.354584	1.152206	0.297719	-0.116216	0.464874	0.433167	-0.039277	0.334586	0.655092	0.459017	-0.498206	-176.113544	73.720087	72.951431	0.082188	0.268012	-0.959904	0.934783	-0.354711	-0.019001	-0.345581	-0.895740	-0.279686			
65465						-8.974739	-0.473375	-3.693526	0.094588	1.047523	-0.153199	0.222240	0.469320	-0.074268	0.332590	0.656523	0.459459	-0.497250	-175.929943	73.442929	73.008166	0.083278	0.272530	-0.958536	0.934053	-0.356562	-0.020226	-0.347290	-0.893639	-0.284252			
65466						-8.833248	-0.718757	-3.694619	-0.124845	1.125834	-0.278024	0.282357	0.512498	-0.060442	0.330333	0.658143	0.459818	-0.496282	-175.730819	73.143644	73.048935	0.084543	0.277375	-0.957035	0.933128	-0.358895	-0.021586	-0.349462	-0.891211	-0.289169			
65467						-8.687658	-0.163504	-3.692083	0.398589	0.913691	-0.424414	0.276392	0.540990	-0.010872	0.328144	0.659978	0.460028	-0.495101	-175.651763	72.827893	72.963876	0.086499	0.282288	-0.955422	0.932146	-0.361391	-0.022385	-0.351600	-0.888656	-0.294393			
65468						-8.711512	-0.040133	-3.508468	0.436311	0.647858	-0.453677	0.148641	0.553750	-0.014082	0.326343	0.661575	0.460625	-0.493603	-175.624600	72.507024	72.904893	0.088361	0.287308	-0.953754	0.931643	-0.362650	-0.022932	-0.352467	-0.886532	-0.299713			
65469						-8.768212	-0.100354	-3.263883	0.275427	0.385419	-0.468175	0.058996	0.547637	-0.060864	0.324726	0.662946	0.461540	-0.491972	-175.580003	72.185100	72.913923	0.089888	0.292440	-0.952050	0.931464	-0.363068	-0.023578	-0.352554	-0.884681	-0.305033			
65470						-8.690487	-0.059186	-2.945338	0.196098	0.062199	-0.638781	-0.020550	0.524998	-0.074967	0.323396	0.664046	0.462702	-0.490271	-175.537861	71.877978	72.972381	0.091083	0.297407	-0.950396	0.931613	-0.362645	-0.024199	-0.351853	-0.883198	-0.310099			
65471						-8.619788	-0.504490	-2.619402	-0.341119	-0.088030	-0.796465	-0.105861	0.476850	-0.060133	0.322487	0.664969	0.463897	-0.488485	-175.580747	71.596472	72.988792	0.092363	0.301894	-0.948857	0.932015	-0.361603	-0.024327	-0.350454	-0.882101	-0.314769			
65472						-8.523733	-1.259674	-2.312359	-1.156094	-0.094813	-0.967228	-0.027938	0.391699	-0.037635	0.321577	0.665809	0.464733	-0.487144	-175.590308	71.367151	72.997366	0.093428	0.305538	-0.947585	0.932156	-0.361223	-0.024566	-0.349796	-0.881002	-0.318557			
65473						-8.498690	-1.396396	-2.177458	-1.335611	-0.185745	-1.031994	0.225392	0.290962	-0.026010	0.320078	0.666883	0.464706	-0.486688	-175.476664	71.193435	72.978898	0.094367	0.308253	-0.946612	0.931366	-0.363197	-0.025424	-0.351644	-0.879243	-0.321370			
65474						-8.974929	-2.116753	-2.943123	-1.778362	0.582765	-0.315859	0.447220	0.196201	-0.017080	0.318087	0.668052	0.463999	-0.487065	-175.224683	71.076702	72.976173	0.094946	0.310092	-0.945954	0.929809	-0.367052	-0.026998	-0.355586	-0.876992	-0.323176			
65475						-10.594666	-0.761251	1.055372	-2.096930	-3.925425	-0.110411	1.598738	0.055432	0.001608	0.312602	0.670774	0.460145	-0.490519	-174.339367	71.038888	72.941811	0.095315	0.310632	-0.945739	0.923981	-0.381092	-0.032049	-0.370370	-0.870791	-0.323342			
65476						-11.472736	4.635768	7.919822	0.159704	-12.218124	-1.656320	1.970832	-0.381436	0.264319	0.307501	0.673510	0.453817	-0.495861	-173.590489	71.268287	72.541707	0.096345	0.306344	-0.947033	0.916255	-0.398987	-0.035850	-0.388836	-0.864270	-0.319130			
65477						-12.644648	2.744836	8.763337	-2.169982	-12.487647	-0.671364	0.945497	-0.901636	0.564678	0.307764	0.674038	0.448151	-0.500115	-173.863381	71.812912	71.683156	0.098091	0.296307	-0.950042	0.911976	-0.408884	-0.033366	-0.398344	-0.863143	-0.310332			
65478						-12.034277	4.557959	5.054204	0.944048	-9.727143	-0.033514	0.728055	-1.419253	0.460700	0.309631	0.672636	0.442590	-0.505770	-174.003832	72.645580	71.099382	0.096622	0.282199	-0.954478	0.908608	-0.416486	-0.031159	-0.406320	-0.864236	-0.296650			
65479						-8.592922	9.917924	-2.111432	9.046517	-4.652275	-1.258385	-0.289034	-1.547039	0.540583	0.315418	0.669474	0.439076	-0.509439	-174.925671	73.556110	70.312075	0.095367	0.266528	-0.959097	0.909272	-0.415448	-0.025038	-0.405128	-0.869693	-0.281967			
65480						-7.957985	3.230257	-7.169854	5.050038	2.859868	-0.247843	-1.043401	-1.098609	0.715128	0.323132	0.666595	0.437604	-0.509647	-176.787278	74.209661	68.998361	0.097526	0.254041	-0.962264	0.912775	-0.408177	-0.015250	-0.396648	-0.876843	-0.271690			
65481						-12.240208	-4.987533	-1.320932	-5.253646	0.120102	2.386782	-0.629411	-0.499267	0.610249	0.327910	0.665668	0.436331	-0.508896	-178.383230	74.507947	67.717620	0.101279	0.247159	-0.963668	0.914649	-0.404179	-0.007536	-0.391357	-0.880654	-0.266998			
65482						-19.551664	0.895395	0.764668	-1.444272	-5.804116	8.838821	0.130577	-0.700908	0.108247	0.329278	0.664348	0.434499	-0.511300	-178.501758	74.907109	67.518908	0.099566	0.240597	-0.965505	0.914037	-0.405574	-0.006808	-0.393221	-0.881829	-0.260296			
65483						-16.944093	3.439985	0.163055	1.420223	-5.514357	6.513159	-0.734998	-1.120516	0.179084	0.334647	0.660672	0.433906	-0.513078	-179.294503	75.549515	67.137777	0.096952	0.229940	-0.968364	0.916739	-0.399474	-0.003073	-0.387542	-0.887439	-0.249524			
65484						-12.301520	-2.573753	-1.904339	-2.831547	-0.051955	2.579105	-1.388323	-1.013891	0.422000	0.342502	0.656655	0.434373	-0.512657	178.938232	76.125691	66.137239	0.097008	0.219295	-0.970824	0.921638	-0.388026	0.004443	-0.375731	-0.895179	-0.239752			
65485						-10.080663	-3.872222	-3.123345	-3.395596	2.128102	0.690146	-0.935951	-0.829313	0.409654	0.348467	0.653820	0.433978	-0.512595	177.340727	76.592011	65.049055	0.097818	0.210242	-0.972744	0.924731	-0.380468	0.010759	-0.367836	-0.900579	-0.231634			
65486						-7.313950	-2.753214	-1.630705	-2.665211	1.011887	-2.355771	-0.329664	-0.877337	0.367851	0.352386	0.651804	0.432099	-0.514068	176.123802	77.077818	63.994987	0.098049	0.200986	-0.974675	0.925589	-0.378229	0.015117	-0.365612	-0.903630	-0.223116			
65487						-6.093465	-0.287933	-1.517604	-0.312443	0.283263	-3.540667	-0.131464	-0.768322	0.395397	0.355531	0.650460	0.429777	-0.515549	174.865169	77.497556	62.785776	0.099001	0.192517	-0.976287	0.925693	-0.377778	0.019375	-0.365090	-0.905660	-0.215612			
65488						-8.593599	1.966183	-0.807934	1.260342	-1.632328	-1.203667	-0.186704	-0.657576	0.355171	0.358465	0.649209	0.427944	-0.516619	173.653768	77.847995	61.656996	0.099937	0.185271	-0.977593	0.926029	-0.376734	0.023269	-0.363982	-0.907605	-0.209216			
65489						-10.564000	2.648507	-0.271829	1.492714	-2.666162	0.644336	-0.385929	-0.637409	0.322032	0.361955	0.647568	0.426736	-0.517244	172.329046	78.186473	60.532640	0.100711	0.178243	-0.978819	0.927118	-0.373771	0.027328	-0.360983	-0.910233	-0.202895			
65490						-10.806133	2.179638	-0.020609	0.936577	-2.680911	0.839011	-0.612477	-0.587765	0.333888	0.366052	0.645662	0.426184	-0.517198	170.817510	78.487455	59.349268	0.101748	0.171699	-0.979881	0.928984	-0.368747	0.031849	-0.355860	-0.913534	-0.197025			
65491						-10.184771	1.307355	-0.021920	0.182430	-2.176828	0.220606	-0.758762	-0.501878	0.286261	0.370357	0.643589	0.426282	-0.516635	169.299741	78.741074	58.248701	0.102743	0.166023	-0.980755	0.931380	-0.362238	0.036251	-0.349248	-0.917180	-0.191848			
65492						-10.022015	0.884648	-0.600360	0.002011	-1.408848	0.167230	-0.686544	-0.394972	0.170475	0.373846	0.641673	0.426786	-0.516090	168.193045	78.939816	57.523318	0.103010	0.161838	-0.981426	0.933590	-0.356187	0.039253	-0.343218	-0.920293	-0.187781			
65493						-10.353764	1.164773	-0.599321	0.225761	-1.517286	0.510250	-0.527858	-0.316791	0.112353	0.376557	0.640113	0.427178	-0.515732	167.332172	79.102431	56.959028	0.103079	0.158480	-0.981967	0.935289	-0.351448	0.041459	-0.338540	-0.922696	-0.184452			
65494						-9.867288	1.552821	-0.601578	0.638055	-1.535703	0.054982	-0.445374	-0.285849	0.118860	0.378898	0.638806	0.427420	-0.515437	166.533278	79.242413	56.407157	0.103273	0.155481	-0.982426	0.936673	-0.347497	0.043468	-0.334631	-0.924701	-0.181522			
65495						-9.061404	1.588061	-0.941732	0.864204	-1.073759	-0.668402	-0.464681	-0.220059	0.108506	0.381187	0.637594	0.427837	-0.514904	165.750427	79.348941	55.886184	0.103658	0.153023	-0.982771	0.938122	-0.343304	0.045494	-0.330427	-0.926675	-0.179141			
65496						-8.969311	1.563736	-0.888463	0.829600	-1.075072	-0.766190	-0.477862	-0.140106	0.059975	0.383163	0.636465	0.428622	-0.514180	165.189046	79.413863	55.595284	0.103805	0.151576	-0.982980	0.939636	-0.338939	0.046963	-0.326052	-0.928518	-0.177610			
65497						-9.668943	1.354496	-0.825534	0.538047	-1.148105	-0.096877	-0.552066	-0.101033	0.005998	0.385208	0.635163	0.429810	-0.513270	164.735204	79.467903	55.460216	0.103636	0.150567	-0.983153	0.941430	-0.333756	0.048124	-0.320887	-0.930557	-0.176338			
65498						-10.285840	1.092843	-1.031442	0.294374	-0.946155	0.535008	-0.582163	-0.079289	-0.020684	0.387173	0.633808	0.431229	-0.512275	164.395642	79.510684	55.455803	0.103231	0.149954	-0.983289	0.943311	-0.328278	0.048971	-0.315449	-0.932602	-0.175342			
65499						-10.233908	1.161269	-1.041810	0.368558	-0.936392	0.490424	-0.573839	-0.067713	-0.045811	0.389078	0.632426	0.432693	-0.511304	164.106506	79.554313	55.501071	0.102689	0.149419	-0.983427	0.945168	-0.322790	0.049650	-0.310021	-0.934602	-0.174373			
65500						-9.579633	1.175176	-1.387005	0.556821	-0.508051	-0.091267	-0.652311	-0.044203	-0.048256	0.391111	0.630953	0.434439	-0.510091	163.836909	79.582127	55.608669	0.102138	0.149217	-0.983515	0.947226	-0.316590	0.050337	-0.303860	-0.936752	-0.173678			
65501						-9.258090	0.766815	-1.583384	0.260291	-0.137008	-0.393514	-0.634039	0.000382	-0.069515	0.392991	0.629563	0.436256	-0.508812	163.641286	79.592326	55.784101	0.101582	0.149385	-0.983547	0.949218	-0.310477	0.050880	-0.297768	-0.938769	-0.173338			
65502						-9.490362	0.660244	-1.210486	0.024077	-0.485885	-0.235030	-0.577333	0.025086	-0.090135	0.394522	0.628309	0.438070	-0.507616	163.600186	79.588940	56.080335	0.100841	0.149956	-0.983537	0.951019	-0.304893	0.051021	-0.292223	-0.940507	-0.173357			
65503						-9.792016	0.622136	-1.283929	-0.020641	-0.449315	0.072493	-0.581586	0.032871	-0.087487	0.396114	0.627054	0.439866	-0.506375	163.516978	79.584401	56.339492	0.100205	0.150476	-0.983522	0.952803	-0.299224	0.051295	-0.286575	-0.942243	-0.173357			
65504						-9.776084	0.065565	-1.442682	-0.504916	-0.131762	0.055704	-0.577727	0.019631	-0.064219	0.397717	0.625832	0.441581	-0.505135	163.393180	79.579940	56.551881	0.099689	0.150910	-0.983508	0.954513	-0.293655	0.051691	-0.281011	-0.943924	-0.173319			
65505						-9.568514	-0.891589	-1.892536	-1.277285	0.603216	-0.120538	-0.456424	0.021536	-0.032110	0.399075	0.624908	0.442859	-0.504089	163.206824	79.572859	56.633305	0.099541	0.151153	-0.983486	0.955830	-0.289230	0.052290	-0.276550	-0.945251	-0.173267			
65506						-9.651615	-1.089950	-1.956472	-1.462993	0.703692	-0.038542	-0.192960	0.027156	-0.021182	0.399564	0.624560	0.443480	-0.503586	163.181813	79.557318	56.721992	0.099453	0.151530	-0.983437	0.956389	-0.287349	0.052443	-0.274643	-0.945764	-0.173499			
65507						-9.758415	-0.589870	-2.022453	-0.979524	0.603706	0.104016	0.039382	0.019133	-0.003145	0.399448	0.624680	0.443414	-0.503587	163.193489	79.546811	56.715955	0.099568	0.151670	-0.983403	0.956298	-0.287651	0.052459	-0.274920	-0.945650	-0.173683			
65508						-9.847401	-0.127702	-1.935925	-0.570250	0.373305	0.200848	0.138336	0.012075	0.021184	0.399042	0.625050	0.443038	-0.503781	163.218648	79.532530	56.662643	0.099844	0.151782	-0.983358	0.955901	-0.288967	0.052454	-0.276196	-0.945230	-0.173940			
65509						-9.873565	0.386915	-1.730012	-0.139110	0.025824	0.217762	0.140495	-0.001098	0.031929	0.398741	0.625398	0.442569	-0.503999	163.167456	79.527255	56.533724	0.100235	0.151633	-0.983341	0.955494	-0.290277	0.052635	-0.277460	-0.944853	-0.173980			
65510						-9.898399	0.825104	-1.570018	0.230679	-0.255637	0.237461	0.034962	-0.022536	0.035687	0.398771	0.625506	0.442338	-0.504044	163.059362	79.529522	56.405134	0.100554	0.151375	-0.983349	0.955367	-0.290637	0.052952	-0.277782	-0.944784	-0.173843			
65511						-9.852277	0.627595	-1.607662	0.053228	-0.149485	0.188344	-0.136510	-0.064513	0.036027	0.399487	0.625151	0.442428	-0.503839	162.779534	79.558161	56.205078	0.100808	0.150614	-0.983439	0.955723	-0.289335	0.053655	-0.276463	-0.945304	-0.173113			
65512						-9.845071	0.076812	-2.003030	-0.366623	0.394340	0.219936	-0.153036	-0.103690	0.029686	0.400269	0.624666	0.442527	-0.503732	162.505345	79.605645	56.017152	0.100846	0.149607	-0.983589	0.956121	-0.287909	0.054238	-0.275069	-0.945900	-0.172077			
65513						-9.859033	-0.175458	-2.045532	-0.600121	0.517530	0.226612	-0.016640	-0.114108	0.036405	0.400720	0.624426	0.442214	-0.503947	162.243342	79.660925	55.765391	0.100969	0.148378	-0.983763	0.956143	-0.287740	0.054735	-0.274947	-0.946145	-0.170923			
65514						-9.858798	-0.181177	-2.056484	-0.603144	0.541213	0.227290	0.122544	-0.115670	0.060238	0.400744	0.624530	0.441500	-0.504425	162.019706	79.709269	55.468422	0.101266	0.147169	-0.983914	0.955750	-0.288964	0.055145	-0.276200	-0.945960	-0.169919			
65515						-9.771514	0.004958	-2.031060	-0.423913	0.489220	0.146663	0.234754	-0.124825	0.078662	0.400538	0.624858	0.440400	-0.505143	161.760246	79.762393	55.072871	0.101757	0.145718	-0.984079	0.955033	-0.291235	0.055629	-0.278492	-0.945488	-0.168801			
65516						-9.714805	0.210908	-1.937858	-0.246989	0.361675	0.086069	0.298215	-0.134787	0.089847	0.400129	0.625329	0.439110	-0.506008	161.523384	79.815335	54.660290	0.102278	0.144240	-0.984243	0.954112	-0.294159	0.056038	-0.281441	-0.944810	-0.167707			
65517						-9.737038	0.327475	-2.029525	-0.111288	0.424452	0.129322	0.370878	-0.150293	0.089622	0.399577	0.625887	0.437579	-0.507079	161.276577	79.879567	54.198401	0.102791	0.142515	-0.984441	0.952983	-0.297727	0.056405	-0.285056	-0.943953	-0.166419			
65518						-9.765761	0.821259	-2.099753	0.379886	0.351094	0.196604	0.407935	-0.150779	0.071181	0.398809	0.626490	0.436034	-0.508268	161.135572	79.944074	53.819490	0.103077	0.140938	-0.984638	0.951745	-0.301652	0.056456	-0.289061	-0.942944	-0.165230			
65519						-9.633849	1.000891	-1.698000	0.452456	-0.053000	0.010168	0.335274	-0.139469	0.037279	0.398208	0.626887	0.434774	-0.509328	161.032405	80.011534	53.524195	0.103113	0.139472	-0.984843	0.950745	-0.304804	0.056377	-0.292321	-0.942148	-0.164032			
65520						-9.643244	1.318587	-1.080593	0.577251	-0.725907	-0.063926	0.280983	-0.107863	0.008808	0.397583	0.627207	0.433830	-0.510226	161.050675	80.064208	53.380998	0.102921	0.138488	-0.985002	0.949917	-0.307438	0.056031	-0.295067	-0.941437	-0.163194			
65521						-9.722983	1.867972	-0.763162	1.000431	-1.197967	-0.005947	0.096741	-0.096067	-0.010739	0.397512	0.627134	0.433413	-0.510726	161.001521	80.116999	53.279312	0.102624	0.137577	-0.985160	0.949655	-0.308275	0.055875	-0.296013	-0.941297	-0.162287			
65522						-9.617225	1.637827	-0.776428	0.800878	-1.093550	-0.120471	-0.078200	-0.074255	-0.035419	0.397827	0.626728	0.433591	-0.510827	160.986153	80.159700	53.310901	0.102110	0.137045	-0.985288	0.949929	-0.307465	0.055679	-0.295311	-0.941639	-0.161578			
65523						-9.585157	1.400863	-0.743152	0.574338	-1.041812	-0.170350	-0.143897	-0.032900	-0.067660	0.398230	0.626214	0.434090	-0.510720	161.042597	80.188969	53.456379	0.101462	0.136899	-0.985375	0.950434	-0.305958	0.055357	-0.293905	-0.942151	-0.161157			
65524						-9.559914	0.944666	-0.860253	0.184219	-0.787969	-0.201780	-0.125032	0.004716	-0.085225	0.398393	0.625808	0.434700	-0.510571	161.242039	80.198064	53.733190	0.100706	0.137262	-0.985402	0.950894	-0.304638	0.054745	-0.292676	-0.942526	-0.161200			
65525						-9.735939	0.848594	-0.843314	0.077059	-0.803268	-0.036768	0.050401	0.053994	-0.106353	0.397901	0.625818	0.434997	-0.510691	161.623796	80.187143	54.095903	0.099946	0.138049	-0.985370	0.950866	-0.304906	0.053729	-0.293028	-0.942324	-0.161740			
65526						-9.984441	1.233885	-0.840171	0.426776	-0.970542	0.226899	0.163508	0.097460	-0.131807	0.396840	0.626121	0.435199	-0.510971	162.230160	80.153356	54.617935	0.099020	0.139427	-0.985269	0.950523	-0.306239	0.052192	-0.294451	-0.941689	-0.162853			
65527						-10.005873	1.954304	-0.565796	1.039090	-1.470165	0.237973	0.275100	0.115333	-0.164370	0.395363	0.626605	0.435224	-0.511502	162.979375	80.117690	55.223105	0.097892	0.140969	-0.985162	0.949885	-0.308536	0.050237	-0.296876	-0.940709	-0.164108			
65528						-10.207441	2.890847	-0.123440	1.791130	-2.230603	0.403977	0.350073	0.163400	-0.231241	0.393318	0.627227	0.435389	-0.512175	164.056809	80.061378	56.114959	0.096226	0.143280	-0.984993	0.949071	-0.311474	0.047409	-0.300007	-0.939391	-0.165954			
65529						-10.445450	3.322878	0.715061	1.940943	-3.223681	0.507230	0.360927	0.257193	-0.282513	0.390961	0.627980	0.435837	-0.512676	165.329708	79.961588	57.202270	0.094418	0.146522	-0.984691	0.948267	-0.314391	0.044145	-0.303109	-0.937918	-0.168626			
65530						-10.402423	2.360055	1.078593	0.936756	-3.301598	0.344346	0.291569	0.344320	-0.311640	0.388495	0.628768	0.436754	-0.512805	166.731719	79.809123	58.458434	0.092554	0.150789	-0.984224	0.947678	-0.316636	0.040607	-0.305517	-0.936485	-0.172205			
65531						-10.166327	0.706392	1.078012	-0.593296	-2.791228	0.029674	0.208300	0.445157	-0.331765	0.386081	0.629586	0.438105	-0.512471	168.134595	79.601947	59.768182	0.090875	0.155939	-0.983578	0.947361	-0.318010	0.037110	-0.307001	-0.935175	-0.176629			
65532						-9.736633	-1.166969	0.335975	-2.086902	-1.490968	-0.341771	0.232308	0.565325	-0.327431	0.383270	0.630779	0.439643	-0.511797	169.588810	79.316273	61.113685	0.089556	0.162322	-0.982665	0.946948	-0.319636	0.033502	-0.308657	-0.933533	-0.182335			
65533						-9.336361	-2.336914	-0.085402	-3.019345	-0.719749	-0.702184	0.421861	0.725309	-0.293594	0.379660	0.632786	0.440858	-0.510965	171.017775	78.936300	62.328551	0.089119	0.169952	-0.981414	0.945923	-0.323005	0.029961	-0.311910	-0.931013	-0.189547			
65534						-9.344193	-2.063340	-0.292585	-2.693332	-0.687049	-0.651335	0.508989	0.878096	-0.243408	0.375487	0.635467	0.442002	-0.509731	172.358342	78.454558	63.399957	0.089617	0.178960	-0.979766	0.944550	-0.327287	0.026615	-0.315902	-0.927823	-0.198368			
65535						-9.654555	-0.501821	-1.121879	-0.988309	-0.568074	-0.147251	0.412235	0.951412	-0.207575	0.371611	0.638186	0.443380	-0.507974	173.447268	77.930317	64.277677	0.090752	0.188381	-0.977894	0.943456	-0.330638	0.023862	-0.318834	-0.924765	-0.207735			
00000						-10.183497	1.111567	-1.655070	0.646822	-0.805791	0.512520	0.087242	0.954316	-0.211618	0.368675	0.640312	0.445615	-0.505477	174.309419	77.395547	65.110768	0.091841	0.197952	-0.975900	0.943378	-0.331012	0.021638	-0.318751	-0.922630	-0.217144			
00001						-10.511990	1.682879	-2.944014	1.550911	0.036142	1.123214	-0.371527	0.877720	-0.214659	0.367433	0.641346	0.448844	-0.502202	174.811410	76.908895	65.850731	0.092665	0.206677	-0.974011	0.944780	-0.327064	0.020483	-0.314330	-0.922125	-0.225572			
00002						-10.685442	1.713997	-3.514348	1.719211	0.438197	1.426483	-0.691545	0.758486	-0.172987	0.367509	0.641600	0.452535	-0.498496	174.990298	76.480838	66.443452	0.093427	0.214290	-0.972292	0.947097	-0.320298	0.020414	-0.307049	-0.922762	-0.232878			
00003						-10.900276	-0.148177	-2.916923	-0.283943	0.372239	1.462362	-0.962483	0.649361	-0.094908	0.368955	0.641215	0.456411	-0.494373	174.767068	76.117310	66.787716	0.094568	0.220512	-0.970789	0.950118	-0.311123	0.021883	-0.297209	-0.924433	-0.238935			
00004						-11.332002	-2.460490	-2.593606	-2.658676	0.626266	1.751641	-0.962137	0.526894	-0.088145	0.370613	0.640548	0.460050	-0.490611	174.524297	75.817452	67.107453	0.095311	0.225714	-0.969520	0.953021	-0.302001	0.023380	-0.287519	-0.926201	-0.243894			
00005						-10.901471	-1.532318	-1.758172	-1.997059	-0.391030	1.148147	-0.624006	0.323002	-0.178356	0.371496	0.639757	0.462737	-0.488442	174.608755	75.645108	67.570031	0.094598	0.229171	-0.968779	0.954988	-0.295729	0.023294	-0.281158	-0.927375	-0.246831			
00006						-9.657274	1.648903	-0.906699	0.924059	-1.860449	-0.195580	-0.633206	0.075976	-0.220559	0.372804	0.638269	0.465140	-0.487108	174.747410	75.609489	68.089449	0.092741	0.230578	-0.968624	0.956961	-0.289323	0.022752	-0.274999	-0.929046	-0.247486			
00007						-9.033759	2.751883	-1.446058	2.199631	-1.514528	-0.639879	-1.061714	-0.132536	-0.185660	0.376112	0.635511	0.468056	-0.485375	174.499340	75.697613	68.468048	0.090668	0.229799	-0.969005	0.960021	-0.278926	0.023681	-0.264839	-0.932412	-0.245902			
00008						-9.050743	2.199675	-1.460492	1.682206	-1.300398	-0.627571	-1.605484	-0.298794	-0.163368	0.381503	0.631379	0.471907	-0.482825	173.873374	75.873410	68.773001	0.088367	0.227506	-0.969759	0.964302	-0.263519	0.026048	-0.249624	-0.937443	-0.242671			
00009						-9.138838	0.885266	-1.717014	0.473132	-0.670522	-0.508042	-2.007772	-0.447640	-0.180080	0.388512	0.625995	0.476431	-0.479793	172.988507	76.142705	69.053249	0.085623	0.223676	-0.970895	0.969298	-0.244143	0.029236	-0.230498	-0.943590	-0.237713			
00010						-9.133397	-0.209873	-1.878892	-0.556000	-0.191711	-0.504245	-2.170204	-0.594650	-0.229069	0.396145	0.619783	0.481182	-0.476867	172.093005	76.493545	69.413107	0.082124	0.218640	-0.972344	0.974274	-0.223066	0.032129	-0.209872	-0.949968	-0.231334			
00011						-9.170754	-0.981808	-2.217137	-1.250577	0.346415	-0.415975	-2.115127	-0.712054	-0.270335	0.403812	0.613189	0.485610	-0.474465	171.251216	76.922437	69.799923	0.078131	0.212353	-0.974065	0.978732	-0.202237	0.034416	-0.189684	-0.956037	-0.223637			
00012						-9.136124	-1.459577	-2.705765	-1.635551	0.966360	-0.362228	-1.890117	-0.771328	-0.313945	0.410712	0.606764	0.489487	-0.472817	170.637464	77.383140	70.282936	0.073693	0.205624	-0.975853	0.982389	-0.183437	0.035534	-0.171700	-0.961286	-0.215521			
00013						-9.135542	-1.187026	-2.964976	-1.333484	1.218950	-0.305114	-1.656310	-0.782208	-0.365200	0.416835	0.600574	0.492874	-0.471842	170.262323	77.862573	70.876917	0.068880	0.198655	-0.977646	0.985375	-0.166647	0.035562	-0.155857	-0.965798	-0.207228			
00014						-9.135635	-0.709920	-3.423517	-0.796364	1.641620	-0.202546	-1.467217	-0.757384	-0.408650	0.422126	0.594716	0.495981	-0.471303	170.161421	78.325976	71.634685	0.063753	0.192037	-0.979315	0.987833	-0.151625	0.034575	-0.141849	-0.969604	-0.199367			
00015						-8.941383	-0.676527	-3.643801	-0.721983	1.949348	-0.359551	-1.275527	-0.712156	-0.416776	0.426751	0.589275	0.498702	-0.471100	170.222136	78.771293	72.448450	0.058722	0.185661	-0.980858	0.989830	-0.138360	0.033070	-0.129572	-0.972824	-0.191897			
00016						-8.607650	-1.357761	-3.797567	-1.357200	2.307249	-0.691773	-1.027038	-0.660071	-0.379856	0.430517	0.584585	0.500837	-0.471253	170.403130	79.176689	73.234114	0.054168	0.179799	-0.982211	0.991327	-0.127636	0.031306	-0.119737	-0.975388	-0.185153			
00017						-8.292647	-1.645411	-3.711781	-1.630706	2.361473	-1.036768	-0.574849	-0.605298	-0.324576	0.432999	0.581085	0.501827	-0.472253	170.721739	79.551490	73.899162	0.050294	0.174238	-0.983418	0.992177	-0.121364	0.029239	-0.114257	-0.977196	-0.178979			
00018						-8.107265	-1.217466	-3.490332	-1.205936	2.166876	-1.254500	-0.078220	-0.532083	-0.236715	0.433997	0.579078	0.501560	-0.474081	171.144567	79.869895	74.376200	0.047369	0.169385	-0.984411	0.992384	-0.120167	0.027076	-0.113707	-0.978197	-0.173787			
00019						-8.387503	-0.682285	-3.514037	-0.660711	2.119846	-0.967706	0.351813	-0.466914	-0.134506	0.433879	0.578379	0.500098	-0.476581	171.524983	80.147730	74.563209	0.045545	0.164936	-0.985252	0.992049	-0.123302	0.025218	-0.117324	-0.978567	-0.169240			
00020						-8.703087	-0.625127	-3.508569	-0.589600	2.094092	-0.663288	0.661209	-0.410885	-0.025092	0.432928	0.578782	0.497715	-0.479441	171.781552	80.378732	74.440898	0.044831	0.161010	-0.985934	0.991265	-0.129705	0.023892	-0.124034	-0.978393	-0.165418			
00021						-8.694785	-0.889569	-3.381426	-0.837914	2.044340	-0.705380	0.866445	-0.384612	0.065489	0.431576	0.579880	0.494609	-0.482539	171.844285	80.592754	74.006187	0.045036	0.157124	-0.986551	0.990132	-0.138208	0.023188	-0.132706	-0.977860	-0.161798			
00022						-8.547985	-1.713417	-4.968746	-1.397709	3.774390	-0.620718	0.968249	-0.365419	0.073565	0.429841	0.581277	0.491280	-0.485796	171.958180	80.790093	73.561185	0.045293	0.153509	-0.987109	0.988770	-0.147761	0.022391	-0.142419	-0.977037	-0.158478			
00023						-8.420071	-1.821953	-7.132736	-1.105739	5.962142	-0.414716	1.738769	-0.196501	0.082419	0.425494	0.584709	0.486376	-0.490416	172.546147	80.895842	73.152252	0.045860	0.151438	-0.987402	0.986116	-0.164785	0.020527	-0.159601	-0.974634	-0.156893			
00024						-8.468364	1.729431	-3.526610	1.903433	1.852028	-0.863512	1.990326	-0.086754	0.210643	0.420380	0.589229	0.480686	-0.495006	172.892016	80.925861	72.349397	0.047820	0.150288	-0.987485	0.982650	-0.184443	0.019515	-0.179201	-0.971285	-0.156500			
00025						-9.420472	-0.549470	-1.171518	-0.784008	-0.171390	-0.337688	1.658218	0.017570	0.292582	0.416195	0.593441	0.475739	-0.498279	172.785928	80.894502	71.283523	0.050781	0.149884	-0.987399	0.979409	-0.200908	0.019873	-0.195397	-0.968076	-0.157000			
00026						-11.392741	0.167497	0.565228	-0.541014	-2.279984	1.352032	1.486361	-0.111257	0.232666	0.412616	0.596809	0.471116	-0.501614	172.753420	80.936975	70.389916	0.052867	0.148384	-0.987516	0.976280	-0.215597	0.019870	-0.209957	-0.965143	-0.156263			
00027						-11.197661	0.894619	-1.161372	0.520380	-0.718421	1.445631	1.042185	-0.313949	0.244159	0.410887	0.598736	0.467118	-0.504467	172.300546	81.096863	69.330963	0.054627	0.144803	-0.987951	0.973920	-0.225944	0.020735	-0.220219	-0.963318	-0.153369			
00028						-10.235054	1.464507	-1.008631	1.083212	-0.828479	0.485791	0.844316	-0.341028	0.256139	0.409797	0.600218	0.463531	-0.506896	171.665257	81.265891	68.200285	0.056391	0.140990	-0.988404	0.971888	-0.234412	0.022011	-0.228590	-0.961859	-0.150245			
00029						-9.912776	2.471984	-1.203950	2.110403	-0.808226	0.223061	0.453252	-0.275947	0.259407	0.409769	0.601045	0.461034	-0.508213	170.775863	81.399136	67.041972	0.058333	0.137705	-0.988754	0.970706	-0.239073	0.023972	-0.233083	-0.961188	-0.147616			
00030						-10.107682	2.337563	-1.152613	1.938511	-0.832412	0.410187	0.091355	-0.182907	0.243219	0.410534	0.601344	0.459711	-0.508443	169.792492	81.474901	65.996338	0.060304	0.135423	-0.988951	0.970354	-0.240257	0.026271	-0.234045	-0.961217	-0.145896			
00031						-9.900278	1.929589	-0.535302	1.390168	-1.276081	0.110232	-0.259857	-0.159862	0.245604	0.412345	0.600969	0.459298	-0.507793	168.571833	81.537945	64.916459	0.062385	0.133276	-0.989114	0.970819	-0.238035	0.029157	-0.231558	-0.962069	-0.144237			
00032						-9.744636	1.907700	0.123206	1.208675	-1.854557	-0.132190	-0.547799	-0.204211	0.223710	0.415025	0.599848	0.459608	-0.506653	167.240685	81.621464	63.889847	0.064128	0.130842	-0.989327	0.971937	-0.233030	0.032181	-0.226332	-0.963627	-0.142114			
00033						-9.610366	0.737333	-0.707255	0.250797	-0.728194	-0.178908	-0.851467	-0.271308	0.213384	0.418780	0.597879	0.460549	-0.505033	165.656839	81.743439	62.786075	0.065673	0.127710	-0.989635	0.973701	-0.225036	0.035575	-0.218160	-0.965945	-0.139130			
00034						-9.129244	-0.829942	-1.403343	-1.115565	0.388228	-0.614538	-0.922281	-0.260854	0.217500	0.422681	0.595799	0.461690	-0.503196	164.019210	81.851052	61.667166	0.067272	0.124766	-0.989903	0.975532	-0.216365	0.039025	-0.209311	-0.968308	-0.136269			
00035						-8.838869	-2.088474	-2.325677	-2.162074	1.607740	-0.832899	-0.648423	-0.190928	0.227377	0.425664	0.594469	0.462231	-0.501756	162.518656	81.917681	60.530627	0.069167	0.122405	-0.990067	0.976723	-0.210305	0.042234	-0.203046	-0.969943	-0.134102			
00036						-9.033849	-1.376193	-2.149832	-1.542801	1.275949	-0.641113	-0.154037	-0.121789	0.221926	0.426959	0.594364	0.461713	-0.501257	161.423186	81.940620	59.515094	0.071125	0.120819	-0.990123	0.976884	-0.209054	0.044664	-0.201593	-0.970412	-0.132895			
00037						-9.493820	0.435641	-1.688146	0.081463	0.407448	-0.169060	0.066889	-0.098895	0.223934	0.427587	0.594774	0.460666	-0.501199	160.444585	81.951355	58.492026	0.073174	0.119371	-0.990150	0.976596	-0.209913	0.046865	-0.202251	-0.970406	-0.131938			
00038						-9.763254	1.571890	-1.375093	1.088983	-0.154823	0.110667	0.066331	-0.096182	0.231283	0.428190	0.595223	0.459621	-0.501111	159.467266	81.953648	57.468362	0.075273	0.118011	-0.990155	0.976295	-0.210804	0.049095	-0.202935	-0.970379	-0.131082			
