// General information: 
//  MT Manager version: 2021.4.0 
//  XDA version: 2021.4.0 build 6323 rev 112641 built on 2021-09-28
// Device information: 
//  DeviceId: 00B4A3D1
//  ProductCode: MTW2-3A7G6
//  Firmware Version: 4.6.0
//  Hardware Version: 2.0.0
// Device settings: 
//  Filter Profile: human(46.1)
//  Option Flags: Orientation Smoother Disabled, Position/Velocity Smoother Disabled, Continuous Zero Rotation Update Disabled, AHS Disabled, ICC Disabled
// Coordinate system: ENU
PacketCounter	SampleTimeFine	Year	Month	Day	Second	Acc_X	Acc_Y	Acc_Z	FreeAcc_E	FreeAcc_N	FreeAcc_U	Gyr_X	Gyr_Y	Gyr_Z	Quat_q0	Quat_q1	Quat_q2	Quat_q3	Roll	Pitch	Yaw	Mat[1][1]	Mat[2][1]	Mat[3][1]	Mat[1][2]	Mat[2][2]	Mat[3][2]	Mat[1][3]	Mat[2][3]	Mat[3][3]	GyrTemp_X	GyrTemp_Y	GyrTemp_Z
65109						-5.391669	0.888678	8.088115	0.073011	-0.107568	-0.052537	0.013466	0.124789	-0.004842	0.460867	0.275480	0.104592	-0.837122	5.447725	33.891767	-120.670132	-0.423426	-0.713978	-0.557626	0.829229	-0.553325	0.078807	-0.364815	-0.429031	0.826343			
65110						-5.466360	0.665665	8.049034	-0.073922	0.077065	-0.060778	0.017853	0.123337	-0.002227	0.460799	0.276028	0.104777	-0.836955	5.465479	33.959627	-120.658587	-0.422945	-0.713494	-0.558609	0.829180	-0.553371	0.079000	-0.365484	-0.429774	0.825661			
65111						-5.424983	0.618536	8.132047	-0.169166	0.029125	-0.019131	0.028286	0.122815	0.002970	0.460710	0.276607	0.104928	-0.836794	5.488294	34.028733	-120.648034	-0.422470	-0.712992	-0.559609	0.829087	-0.553472	0.079264	-0.366243	-0.430478	0.824958			
65112						-5.527712	0.879471	8.125980	0.083183	-0.047404	0.053996	0.037737	0.127684	0.008793	0.460659	0.277224	0.105026	-0.836606	5.521804	34.098486	-120.628641	-0.421881	-0.712548	-0.560617	0.829011	-0.553527	0.079681	-0.367093	-0.431142	0.824233			
65113						-5.573432	0.944050	8.079855	0.163337	-0.038666	0.046838	0.033697	0.116304	0.009311	0.460592	0.277791	0.105131	-0.836442	5.550006	34.163518	-120.614047	-0.421375	-0.712108	-0.561557	0.828925	-0.553606	0.080025	-0.367868	-0.431768	0.823559			
65114						-5.598891	1.017198	8.061433	0.232787	-0.059964	0.051955	0.025399	0.105227	0.006197	0.460557	0.278285	0.105232	-0.836284	5.574699	34.220629	-120.597862	-0.420889	-0.711744	-0.562381	0.828882	-0.553627	0.080326	-0.368521	-0.432339	0.822967			
65115						-5.517327	1.104239	7.985337	0.291750	-0.140416	-0.049439	0.010681	0.095344	0.000303	0.460495	0.278706	0.105397	-0.836157	5.585493	34.274199	-120.590810	-0.420533	-0.711343	-0.563154	0.828842	-0.553671	0.080430	-0.369015	-0.432943	0.822429			
65116						-5.409335	1.096873	8.076437	0.201455	-0.259582	-0.035934	-0.005229	0.090177	-0.013694	0.460428	0.279057	0.105619	-0.836049	5.584443	34.323866	-120.589290	-0.420266	-0.710934	-0.563870	0.828828	-0.553701	0.080367	-0.369351	-0.433576	0.821944			
65117						-5.423666	1.138323	8.039864	0.252349	-0.264983	-0.054745	-0.024166	0.089979	-0.029403	0.460294	0.279360	0.105959	-0.835979	5.563502	34.376028	-120.603113	-0.420176	-0.710390	-0.564622	0.828793	-0.553805	0.080017	-0.369534	-0.434333	0.821462			
65118						-5.597358	1.011546	7.996663	0.235127	-0.061622	-0.002429	-0.041654	0.082434	-0.043367	0.460158	0.279578	0.106356	-0.835930	5.529777	34.422895	-120.622536	-0.420181	-0.709850	-0.565297	0.828789	-0.553886	0.079489	-0.369535	-0.435112	0.821049			
65119						-5.662661	0.758422	7.963948	0.065124	0.129818	-0.012468	-0.038017	0.074364	-0.040294	0.460005	0.279778	0.106733	-0.835899	5.495986	34.466735	-120.645011	-0.420239	-0.709313	-0.565928	0.828759	-0.554007	0.078963	-0.369537	-0.435834	0.820665			
65120						-5.643873	0.739318	7.991495	0.031112	0.107274	-0.001907	-0.032037	0.065907	-0.031534	0.459913	0.279956	0.107035	-0.835851	5.471724	34.503571	-120.657516	-0.420208	-0.708908	-0.566458	0.828769	-0.554046	0.078581	-0.369550	-0.436442	0.820336			
65121						-5.609852	0.733843	8.070385	-0.017667	0.044703	0.043162	-0.017026	0.064284	-0.019263	0.459824	0.280173	0.107272	-0.835797	5.457771	34.540497	-120.666161	-0.420129	-0.708531	-0.566989	0.828749	-0.554109	0.078346	-0.369684	-0.436976	0.819991			
65122						-5.602829	0.784849	8.062374	0.022504	0.009248	0.036625	-0.010499	0.063429	-0.012109	0.459784	0.280401	0.107452	-0.835720	5.453261	34.574915	-120.665492	-0.419947	-0.708242	-0.567483	0.828761	-0.554105	0.078249	-0.369865	-0.437447	0.819658			
65123						-5.533547	0.799199	8.045437	0.008864	-0.045912	-0.015457	-0.004102	0.063885	-0.001779	0.459750	0.280656	0.107609	-0.835633	5.453558	34.610658	-120.662063	-0.419724	-0.707963	-0.567997	0.828767	-0.554100	0.078220	-0.370104	-0.437906	0.819305			
65124						-5.532764	0.937180	8.100390	0.099259	-0.151911	0.039884	-0.008469	0.065664	-0.000085	0.459756	0.280904	0.107769	-0.835526	5.455002	34.645709	-120.652983	-0.419434	-0.707730	-0.568500	0.828821	-0.554021	0.078208	-0.370311	-0.438382	0.818957			
65125						-5.561630	0.930323	8.093220	0.105237	-0.130260	0.049837	-0.009315	0.069908	-0.000472	0.459732	0.281172	0.107960	-0.835424	5.453062	34.684813	-120.648241	-0.419178	-0.707431	-0.569062	0.828853	-0.553983	0.078143	-0.370531	-0.438912	0.818574			
65126						-5.507258	0.974293	8.119698	0.105659	-0.210374	0.043945	-0.006141	0.073016	-0.008097	0.459697	0.281453	0.108138	-0.835326	5.452972	34.724491	-120.644173	-0.418927	-0.707122	-0.569631	0.828865	-0.553970	0.078104	-0.370788	-0.439427	0.818181			
65127						-5.507007	0.929475	8.147281	0.054668	-0.204607	0.062756	-0.004117	0.082826	-0.011939	0.459610	0.281780	0.108353	-0.835235	5.449970	34.771585	-120.646528	-0.418717	-0.706701	-0.570306	0.828829	-0.554036	0.078017	-0.371105	-0.440019	0.817719			
65128						-5.297626	0.939623	8.206168	-0.050728	-0.391584	-0.007943	-0.003397	0.098836	-0.018537	0.459514	0.282169	0.108594	-0.835126	5.448333	34.826500	-120.647959	-0.418456	-0.706220	-0.571093	0.828787	-0.554109	0.077941	-0.371492	-0.440700	0.817177			
65129						-5.323903	1.049982	8.282888	0.018189	-0.478273	0.077891	-0.010112	0.132789	-0.021625	0.459368	0.282686	0.108963	-0.834983	5.439930	34.902615	-120.653744	-0.418140	-0.705525	-0.572183	0.828733	-0.554217	0.077750	-0.371968	-0.441677	0.816432			
65130						-5.476626	0.989366	8.131319	0.082525	-0.282121	0.036384	-0.014545	0.142140	-0.035832	0.459193	0.283219	0.109373	-0.834845	5.426676	34.983044	-120.664159	-0.417858	-0.704757	-0.573334	0.828663	-0.554359	0.077485	-0.372441	-0.442723	0.815650			
65131						-5.596479	0.667309	8.043303	-0.106958	0.006376	0.008163	-0.015580	0.147858	-0.030888	0.459007	0.283781	0.109812	-0.834699	5.411966	35.068251	-120.675447	-0.417562	-0.703941	-0.574552	0.828591	-0.554507	0.077195	-0.372934	-0.443835	0.814820			
65132						-5.614631	0.568472	8.071026	-0.198599	0.048702	0.033473	-0.002664	0.157348	-0.012985	0.458902	0.284416	0.110175	-0.834492	5.415175	35.156084	-120.668973	-0.417032	-0.703230	-0.575806	0.828572	-0.554540	0.077157	-0.373567	-0.444920	0.813938			
65133						-5.645442	0.539115	8.062251	-0.215856	0.077668	0.041698	0.010726	0.165049	0.009477	0.458838	0.285132	0.110487	-0.834242	5.432400	35.248909	-120.650958	-0.416335	-0.702557	-0.577130	0.828570	-0.554521	0.077314	-0.374348	-0.446004	0.812985			
65134						-5.567715	0.628867	8.134321	-0.213170	-0.070760	0.062110	0.036122	0.184177	0.033250	0.458855	0.285993	0.110685	-0.833912	5.477423	35.349513	-120.610404	-0.415321	-0.701978	-0.578563	0.828599	-0.554403	0.077856	-0.375410	-0.447061	0.811914			
65135						-5.559358	0.781771	8.209526	-0.133052	-0.207662	0.129801	0.041283	0.199571	0.040195	0.458855	0.286940	0.110904	-0.833558	5.526126	35.460316	-120.568364	-0.414236	-0.701318	-0.580139	0.828609	-0.554305	0.078438	-0.376584	-0.448217	0.810732			
65136						-5.607816	0.747847	8.296560	-0.191643	-0.207063	0.225247	0.064219	0.228467	0.052097	0.458885	0.288059	0.111060	-0.833134	5.596876	35.585036	-120.511190	-0.412894	-0.700642	-0.581911	0.828609	-0.554181	0.079315	-0.378055	-0.449428	0.809376			
65137						-5.600303	0.639787	8.302947	-0.307849	-0.170344	0.216659	0.078427	0.259433	0.061955	0.458888	0.289351	0.111230	-0.832662	5.678596	35.728663	-120.449273	-0.411396	-0.699828	-0.583947	0.828566	-0.554100	0.080325	-0.379779	-0.450793	0.807808			
65138						-5.601550	0.578400	8.275625	-0.373259	-0.138726	0.189274	0.114868	0.291583	0.080329	0.458925	0.290863	0.111278	-0.832108	5.793202	35.887494	-120.367223	-0.409573	-0.699017	-0.586196	0.828484	-0.554010	0.081777	-0.381922	-0.452160	0.806032			
65139						-5.712936	0.665852	8.205068	-0.257844	-0.094297	0.203732	0.133195	0.321097	0.092841	0.458940	0.292553	0.111317	-0.831502	5.922526	36.064264	-120.278163	-0.407573	-0.698087	-0.588692	0.828352	-0.553965	0.083409	-0.384342	-0.453649	0.804042			
65140						-5.720072	0.490006	8.214911	-0.437864	-0.013729	0.199907	0.156005	0.348360	0.111416	0.459013	0.294410	0.111279	-0.830811	6.077081	36.253219	-120.168676	-0.405260	-0.697183	-0.591355	0.828229	-0.553848	0.085372	-0.387040	-0.455180	0.801880			
65141						-5.761957	0.478409	8.169840	-0.450642	0.024273	0.185886	0.185228	0.373628	0.136236	0.459100	0.296460	0.111157	-0.830050	6.258228	36.456846	-120.043285	-0.402678	-0.696244	-0.594217	0.828059	-0.553743	0.087677	-0.390088	-0.456741	0.799512			
65142						-5.841482	0.411627	8.123403	-0.497977	0.120275	0.188282	0.204765	0.396570	0.173434	0.459326	0.298659	0.110937	-0.829165	6.470826	36.668796	-119.884007	-0.399643	-0.695450	-0.597188	0.827980	-0.553424	0.090395	-0.393364	-0.458334	0.796991			
65143						-5.874308	0.320296	8.266795	-0.664333	0.110100	0.311357	0.231024	0.425834	0.223921	0.459674	0.301076	0.110613	-0.828141	6.720396	36.895604	-119.689418	-0.396105	-0.694744	-0.600359	0.827956	-0.552929	0.093588	-0.396975	-0.460000	0.794236			
65144						-5.841936	0.169705	8.381695	-0.903525	0.097372	0.364916	0.238754	0.535295	0.301974	0.460298	0.303994	0.110377	-0.826759	7.017577	37.176452	-119.423565	-0.391427	-0.694003	-0.604272	0.828219	-0.551885	0.097345	-0.401047	-0.462366	0.790809			
65145						-6.479689	0.150398	7.761776	-0.491872	0.810320	0.254835	0.328150	0.683839	0.377321	0.460980	0.307779	0.110010	-0.825026	7.407841	37.537187	-119.091383	-0.385539	-0.692923	-0.609276	0.828358	-0.550791	0.102237	-0.406426	-0.465283	0.786340			
65146						-7.413271	0.207511	7.250491	0.036853	1.637048	0.428759	0.384224	0.701817	0.467945	0.461958	0.311799	0.109302	-0.823061	7.877402	37.897141	-118.683495	-0.378752	-0.692278	-0.614246	0.828600	-0.549296	0.108151	-0.412273	-0.468001	0.781668			
65147						-8.818822	-0.046865	6.487322	0.578653	3.093124	0.673309	0.430411	0.528111	0.559422	0.463298	0.315267	0.107868	-0.821173	8.406598	38.150440	-118.225853	-0.371923	-0.692882	-0.617728	0.828911	-0.547438	0.114968	-0.417827	-0.469283	0.777942			
65148						-9.599050	0.664922	5.807736	1.651974	3.580123	0.711888	0.398355	0.173902	0.699945	0.465465	0.317270	0.105514	-0.819481	8.960466	38.186278	-117.699589	-0.365363	-0.695926	-0.618220	0.829833	-0.544417	0.122423	-0.421767	-0.468291	0.776413			
65149						-10.974706	0.488070	5.384863	2.104661	4.892271	1.201580	0.192508	-0.225165	0.936600	0.469113	0.317284	0.102705	-0.817750	9.470568	37.972139	-117.052460	-0.358528	-0.702061	-0.615278	0.832408	-0.538769	0.129709	-0.422557	-0.465658	0.777566			
65150						-11.568925	-1.462538	3.954727	1.214879	7.122291	0.157968	0.156281	-0.531190	1.158580	0.473865	0.316073	0.098967	-0.815938	10.029002	37.559555	-116.289412	-0.351100	-0.710728	-0.609586	0.835851	-0.531315	0.138050	-0.421998	-0.461054	0.780607			
65151						-12.960070	-0.815650	3.510777	2.330052	8.099067	0.671908	0.470806	-0.643972	1.301183	0.478736	0.315193	0.093452	-0.814083	10.807637	37.060986	-115.451006	-0.342929	-0.720552	-0.602665	0.838373	-0.524157	0.149634	-0.423710	-0.453944	0.783840			
65152						-12.374699	2.921910	4.452000	4.771594	5.459414	1.541338	0.379081	-0.943460	1.231799	0.483544	0.312853	0.087698	-0.812784	11.465255	36.396900	-114.720740	-0.336617	-0.731160	-0.593375	0.840906	-0.516989	0.159998	-0.423753	-0.445115	0.788864			
65153						-11.312412	3.794606	5.388921	4.735802	3.999898	1.719002	-0.478507	-1.237305	0.843822	0.488251	0.307026	0.085319	-0.812445	11.434043	35.605249	-114.308588	-0.334692	-0.740964	-0.582197	0.845744	-0.508663	0.161178	-0.415570	-0.438445	0.796911			
65154						-9.641965	0.083695	5.154989	1.200291	4.889460	-0.107064	-1.156044	-1.310276	0.442504	0.492306	0.299107	0.086123	-0.812867	10.847537	34.824573	-114.187175	-0.336340	-0.748839	-0.571066	0.851878	-0.500435	0.154491	-0.401470	-0.434517	0.806236			
65155						-8.996836	-2.842268	4.711231	-1.241628	6.137346	-1.326955	-1.246016	-1.234363	0.111287	0.495136	0.291057	0.087969	-0.813872	10.089353	34.116678	-114.266602	-0.340252	-0.754747	-0.560880	0.857163	-0.494203	0.145034	-0.386653	-0.431418	0.815094			
65156						-8.518469	-3.602213	4.588143	-1.913716	6.247742	-1.819327	-0.999605	-1.095619	-0.230736	0.496042	0.284078	0.089659	-0.815600	9.359956	33.527467	-114.559445	-0.346484	-0.758204	-0.552337	0.860084	-0.491807	0.135577	-0.374438	-0.428081	0.822522			
65157						-8.049884	-3.951886	4.574607	-2.268516	6.105416	-2.136639	-0.641188	-0.933235	-0.598910	0.494921	0.278405	0.090799	-0.818107	8.715819	33.052474	-115.064950	-0.355087	-0.759239	-0.545407	0.860354	-0.493618	0.127011	-0.365654	-0.424143	0.828492			
65158						-8.069931	-3.586235	4.696662	-1.876660	5.918949	-1.971360	-0.256590	-0.738400	-0.956396	0.491592	0.274383	0.091367	-0.821403	8.177863	32.723758	-115.796070	-0.366102	-0.757451	-0.540589	0.857730	-0.499978	0.119670	-0.360927	-0.419868	0.832732			
65159						-8.699738	-3.014635	4.950904	-1.119351	6.027692	-1.345261	0.091874	-0.579469	-1.292857	0.486411	0.271629	0.091328	-0.825398	7.732667	32.496645	-116.721144	-0.379244	-0.753350	-0.537250	0.852579	-0.510128	0.113484	-0.359559	-0.415010	0.835753			
65160						-9.287236	-2.379818	5.256139	-0.318446	6.030263	-0.698094	0.348106	-0.516676	-1.583719	0.479499	0.269690	0.090813	-0.830121	7.333893	32.333055	-117.847716	-0.394697	-0.747101	-0.534840	0.845067	-0.523668	0.107859	-0.360661	-0.409404	0.838041			
65161						-8.991314	-1.809382	5.470196	0.125297	5.422693	-0.613922	0.544143	-0.481937	-1.832959	0.471355	0.268146	0.089857	-0.835373	6.967129	32.189002	-119.120248	-0.411845	-0.739324	-0.532714	0.835704	-0.539501	0.102656	-0.363295	-0.402913	0.840046			
65162						-8.541549	-1.544276	5.442363	0.327184	4.944704	-0.845912	0.695842	-0.404651	-2.040521	0.461905	0.267251	0.088765	-0.841036	6.615205	32.109403	-120.542365	-0.430442	-0.729512	-0.531538	0.824402	-0.557530	0.097579	-0.367533	-0.396199	0.841395			
65163						-8.094041	-1.419602	5.399393	0.399205	4.543338	-1.101818	0.849570	-0.272520	-2.183941	0.451676	0.267077	0.087466	-0.846763	6.311861	32.094342	-122.030509	-0.449317	-0.718205	-0.531315	0.811646	-0.576676	0.093138	-0.373289	-0.389391	0.842039			
65164						-8.074094	-1.264264	5.605544	0.573663	4.322058	-0.913210	1.007025	-0.109283	-2.282137	0.440514	0.267964	0.086042	-0.852490	6.062606	32.186597	-123.595178	-0.468286	-0.704955	-0.532678	0.797180	-0.597089	0.089384	-0.381068	-0.382783	0.841584			
65165						-8.408043	-0.750305	5.990462	1.112897	4.049097	-0.351789	1.121507	0.038754	-2.354718	0.428922	0.269561	0.084485	-0.858035	5.860358	32.348065	-125.179025	-0.486725	-0.690513	-0.535061	0.781609	-0.617776	0.086259	-0.390111	-0.376224	0.840398			
65166						-8.770864	-0.188488	6.369506	1.688694	3.727548	0.226551	1.158535	0.116048	-2.411449	0.416741	0.271601	0.083058	-0.863517	5.647256	32.567357	-126.824425	-0.505120	-0.674608	-0.538291	0.764843	-0.638857	0.082931	-0.399836	-0.369818	0.838669			
65167						-8.811465	-0.037244	6.754442	1.768994	3.420435	0.600548	1.151138	0.148053	-2.442165	0.404536	0.273597	0.081696	-0.868805	5.419677	32.786004	-128.468979	-0.522991	-0.658221	-0.541503	0.747628	-0.659354	0.079404	-0.409307	-0.363315	0.836941			
65168						-8.612504	0.044321	6.984805	1.721323	3.046868	0.709519	1.106365	0.174544	-2.437736	0.392121	0.275679	0.080626	-0.873923	5.151440	33.029767	-130.141049	-0.540485	-0.640913	-0.545075	0.729821	-0.679481	0.075278	-0.418614	-0.357120	0.835001			
65169						-8.311680	0.278112	7.049997	1.780044	2.565926	0.632879	1.024430	0.214911	-2.407634	0.380069	0.277630	0.079873	-0.878686	4.848768	33.271978	-131.769297	-0.556938	-0.623573	-0.548614	0.712274	-0.698335	0.070670	-0.427184	-0.351405	0.833084			
65170						-8.047947	0.555467	7.146556	1.852862	2.055497	0.603244	0.929411	0.299967	-2.373809	0.367982	0.279854	0.079707	-0.883130	4.486614	33.570054	-133.405119	-0.572543	-0.605338	-0.552956	0.694564	-0.716473	0.065179	-0.435633	-0.346746	0.830657			
65171						-7.849079	0.663021	7.159857	1.857888	1.729326	0.524977	0.812784	0.391619	-2.331520	0.356366	0.282125	0.080086	-0.887128	4.074961	33.892867	-134.986480	-0.586818	-0.587095	-0.557642	0.677472	-0.733180	0.058987	-0.443483	-0.343172	0.827983			
65172						-7.855229	0.588033	7.320537	1.779918	1.595995	0.671761	0.715586	0.483072	-2.283900	0.344779	0.284722	0.081048	-0.890782	3.603679	34.273028	-136.570484	-0.600122	-0.568093	-0.563137	0.660397	-0.749118	0.051941	-0.451363	-0.340723	0.824730			
65173						-7.718795	0.447965	7.469298	1.570992	1.435997	0.724823	0.647625	0.554434	-2.216325	0.333737	0.287387	0.082259	-0.894014	3.118267	34.663970	-138.085237	-0.612056	-0.549451	-0.568762	0.644012	-0.763706	0.044742	-0.458951	-0.338905	0.821284			
65174						-7.639380	0.512093	7.588327	1.530440	1.160937	0.794546	0.601754	0.618592	-2.141774	0.322788	0.290374	0.083733	-0.896928	2.609589	35.095752	-139.588960	-0.622983	-0.530407	-0.574945	0.627663	-0.777594	0.037252	-0.466832	-0.337664	0.817344			
65175						-7.540921	0.753260	7.800876	1.530172	0.708026	0.931711	0.542923	0.676678	-2.077617	0.312379	0.293394	0.085393	-0.899471	2.090350	35.531344	-141.026790	-0.632679	-0.511844	-0.581148	0.612059	-0.790255	0.029684	-0.474449	-0.336917	0.813256			
65176						-7.308083	0.919763	7.857228	1.454049	0.288637	0.854584	0.463673	0.728204	-2.042769	0.301942	0.296622	0.087495	-0.901771	1.510420	36.001523	-142.484723	-0.641693	-0.492660	-0.587807	0.596472	-0.802351	0.021324	-0.482133	-0.336927	0.808720			
65177						-7.268433	0.814304	8.030650	1.271256	0.146133	0.973655	0.415491	0.788870	-2.028573	0.291816	0.299898	0.089807	-0.903792	0.904748	36.477336	-143.913398	-0.649809	-0.473616	-0.594505	0.581348	-0.813556	0.012697	-0.489676	-0.337364	0.803992			
65178						-7.299913	0.742653	8.075494	1.210324	0.049084	1.030958	0.429017	0.815702	-2.021473	0.281414	0.303403	0.092141	-0.905684	0.276981	36.972659	-145.385330	-0.657506	-0.453832	-0.601434	0.565655	-0.824633	0.003862	-0.497715	-0.337665	0.798913			
65179						-7.261827	0.860959	8.150183	1.191699	-0.241594	1.069426	0.482524	0.828657	-2.048911	0.271003	0.306869	0.094215	-0.907476	-0.337111	37.446285	-146.859416	-0.664777	-0.434034	-0.608017	0.549681	-0.835361	-0.004671	-0.505887	-0.337321	0.793910			
65180						-7.069562	0.962312	8.042430	1.141690	-0.525507	0.864575	0.544898	0.830255	-2.099563	0.259992	0.310483	0.096138	-0.909265	-0.972155	37.923763	-148.419740	-0.672009	-0.413104	-0.614612	0.532501	-0.846324	-0.013384	-0.514632	-0.336275	0.788716			
65181						-6.686000	1.033360	7.874318	0.969475	-0.830059	0.489966	0.620619	0.854778	-2.163441	0.248762	0.314111	0.097770	-0.910984	-1.597779	38.385080	-150.009452	-0.678903	-0.391816	-0.620944	0.514658	-0.857117	-0.021856	-0.523658	-0.334412	0.783550			
65182						-6.481140	1.068346	7.665628	0.907812	-1.010468	0.190387	0.721036	0.896792	-2.229490	0.236780	0.318094	0.099147	-0.912645	-2.233053	38.870773	-151.699324	-0.685503	-0.369116	-0.627566	0.495268	-0.868210	-0.030336	-0.533662	-0.331609	0.777972			
65183						-6.436501	1.330407	7.672818	0.943201	-1.390950	0.149462	0.813973	0.931794	-2.295368	0.224528	0.322142	0.100169	-0.914209	-2.852963	39.345290	-153.422869	-0.691623	-0.345994	-0.633992	0.475069	-0.879106	-0.038491	-0.544029	-0.327812	0.772381			
65184						-6.707228	1.648927	7.796708	1.140526	-1.758759	0.390172	0.877149	0.913859	-2.352641	0.211652	0.326209	0.101015	-0.915744	-3.501859	39.807339	-155.240200	-0.697582	-0.321734	-0.640208	0.453543	-0.889998	-0.046922	-0.554688	-0.323094	0.766767			
65185						-6.690919	1.843972	7.784031	1.146182	-2.072479	0.343528	0.928656	0.858369	-2.407057	0.198662	0.329874	0.101579	-0.917278	-4.151222	40.205550	-157.079389	-0.703433	-0.297440	-0.645532	0.431474	-0.900430	-0.055286	-0.564812	-0.317420	0.761730			
65186						-6.528494	1.972140	7.713047	1.044229	-2.349717	0.156672	0.996494	0.772457	-2.450965	0.185144	0.333238	0.101854	-0.918858	-4.815416	40.549995	-158.995466	-0.709349	-0.272358	-0.650111	0.408125	-0.910695	-0.063785	-0.574681	-0.310572	0.757157			
65187						-6.262437	2.209863	7.693403	0.879975	-2.753650	-0.069415	1.075430	0.683412	-2.474001	0.171618	0.336078	0.101649	-0.920471	-5.441858	40.812826	-160.903204	-0.715197	-0.247614	-0.653590	0.384263	-0.920429	-0.071776	-0.583811	-0.302485	0.753438			
65188						-6.019969	2.450119	7.673534	0.719353	-3.139003	-0.286207	1.147001	0.591375	-2.479629	0.157750	0.338593	0.101075	-0.922092	-6.054246	41.019550	-162.850409	-0.720940	-0.222473	-0.656317	0.359367	-0.929797	-0.079576	-0.592538	-0.293228	0.750278			
65189						-5.757380	2.690365	7.644045	0.542499	-3.504886	-0.526298	1.198092	0.467807	-2.458865	0.144132	0.340417	0.100065	-0.923758	-6.612928	41.130078	-164.746948	-0.726685	-0.198159	-0.657771	0.334414	-0.938426	-0.086742	-0.600081	-0.283001	0.748207			
65190						-5.403006	2.963997	7.655546	0.275112	-3.914892	-0.802588	1.218868	0.336820	-2.446673	0.130379	0.341689	0.098869	-0.925459	-7.165200	41.164200	-166.655563	-0.732500	-0.173756	-0.658219	0.308885	-0.946453	-0.093901	-0.606658	-0.272096	0.746947			
65191						-4.883943	2.687388	7.550705	-0.213534	-3.773038	-1.221651	1.269097	0.223149	-2.428163	0.116850	0.342314	0.097272	-0.927203	-7.656519	41.111087	-168.509202	-0.738335	-0.150092	-0.657521	0.283283	-0.953768	-0.100383	-0.612056	-0.260381	0.746719			
65192						-4.450627	2.331998	7.545586	-0.709111	-3.533300	-1.494355	1.384939	0.117974	-2.412270	0.103051	0.342549	0.095072	-0.928979	-8.076771	40.998264	-170.364205	-0.744081	-0.126330	-0.656036	0.256597	-0.960684	-0.106039	-0.616847	-0.247239	0.747243			
65193						-4.126354	2.185976	7.585761	-1.081532	-3.453704	-1.673222	1.532045	0.035389	-2.410848	0.089199	0.342319	0.092084	-0.930796	-8.385003	40.820128	-172.176881	-0.749722	-0.103007	-0.653686	0.229096	-0.967128	-0.110355	-0.620831	-0.232493	0.748676			
65194						-4.124633	1.730167	7.694954	-1.315747	-3.029320	-1.547690	1.688619	-0.068846	-2.444826	0.074793	0.341664	0.088398	-0.932662	-8.616354	40.582065	-174.021174	-0.755344	-0.079108	-0.650537	0.199917	-0.973184	-0.113783	-0.624091	-0.215998	0.750903			
65195						-4.372480	1.060337	7.829429	-1.383003	-2.361454	-1.207249	1.859532	-0.189367	-2.517361	0.059949	0.340319	0.083936	-0.934636	-8.750169	40.256604	-175.872404	-0.761179	-0.054930	-0.646212	0.169191	-0.978722	-0.116096	-0.626084	-0.197703	0.754276			
65196						-4.923950	0.592245	7.912335	-1.103966	-1.860018	-0.728493	2.010888	-0.331427	-2.648352	0.044136	0.338279	0.078962	-0.936688	-8.845464	39.843536	-177.815862	-0.767239	-0.029262	-0.640693	0.136106	-0.983634	-0.118064	-0.626753	-0.177785	0.758665			
65197						-5.376575	0.481150	7.895785	-0.744190	-1.712398	-0.432054	2.093779	-0.488781	-2.860675	0.027381	0.335265	0.073865	-0.938825	-8.947513	39.312906	-179.860581	-0.773695	-0.001883	-0.633555	0.100940	-0.987589	-0.120333	-0.625465	-0.157052	0.764283			
65198						-5.809529	0.190766	7.685127	-0.267182	-1.392426	-0.281806	2.145229	-0.619520	-3.142989	0.009119	0.331484	0.068992	-0.940891	-9.124181	38.685055	177.901825	-0.780070	0.028579	-0.625039	0.062900	-0.990314	-0.123782	-0.622522	-0.135874	0.770717			
65199						-5.873114	0.491184	7.375930	0.044978	-1.676166	-0.521445	2.202087	-0.708020	-3.486432	-0.010692	0.326976	0.064355	-0.942778	-9.368335	37.963176	175.471762	-0.785945	0.062245	-0.615155	0.021925	-0.991488	-0.128337	-0.617907	-0.114354	0.777891			
65200						-5.792924	0.260467	7.030709	0.241019	-1.454915	-0.819288	2.262841	-0.735590	-3.830065	-0.032333	0.322122	0.060001	-0.944241	-9.693700	37.188729	172.809548	-0.790384	0.099715	-0.604442	-0.022405	-0.990709	-0.134141	-0.612202	-0.092480	0.785274			
65201						-6.054489	0.032536	6.705512	0.708767	-1.300459	-0.900490	2.438656	-0.704875	-4.154146	-0.055653	0.317055	0.055266	-0.945158	-9.997241	36.383259	169.967621	-0.792757	0.140246	-0.593184	-0.070157	-0.987697	-0.139760	-0.605487	-0.069180	0.792843			
65202						-6.644855	-0.011300	6.518555	1.345474	-1.433840	-0.714441	2.685105	-0.653303	-4.422524	-0.080728	0.311937	0.049779	-0.945357	-10.232012	35.573492	166.947809	-0.792356	0.183690	-0.581747	-0.121578	-0.982010	-0.144483	-0.597821	-0.043754	0.800435			
65203						-7.718261	0.281549	6.448729	2.237039	-2.061895	-0.222142	2.941661	-0.627374	-4.666119	-0.107185	0.306499	0.043378	-0.944822	-10.352924	34.741538	163.808960	-0.789139	0.229132	-0.569875	-0.175950	-0.973259	-0.147674	-0.588473	-0.016266	0.808353			
65204						-8.137930	1.107915	6.282904	2.507855	-3.143680	-0.286265	3.081732	-0.637146	-4.879389	-0.134885	0.300695	0.036650	-0.943422	-10.428485	33.881514	160.542185	-0.782777	0.276548	-0.557477	-0.232465	-0.960926	-0.150272	-0.577251	0.011965	0.816479			
65205						-7.864654	1.802686	5.912239	2.273426	-3.930448	-0.899996	3.081475	-0.597828	-5.035137	-0.163099	0.294738	0.030064	-0.941076	-10.494995	33.020214	157.216562	-0.773056	0.324700	-0.544935	-0.289256	-0.944989	-0.152729	-0.564549	0.039558	0.824451			
65206						-7.548917	2.263387	5.457419	2.021648	-4.462797	-1.573507	2.998915	-0.486117	-5.083360	-0.191388	0.289156	0.023855	-0.937651	-10.585337	32.216824	153.862215	-0.759519	0.372706	-0.533125	-0.345115	-0.925603	-0.155417	-0.551387	0.065947	0.831639			
65207						-7.231249	3.506798	5.303068	1.239060	-5.653663	-2.118162	2.841223	-0.302046	-4.973419	-0.218697	0.284305	0.017996	-0.933284	-10.677615	31.520453	150.602045	-0.742684	0.418446	-0.522803	-0.397980	-0.903695	-0.157945	-0.538546	0.090762	0.837694			
65208						-6.989373	5.092858	5.264954	0.165895	-7.080598	-2.578274	2.535703	-0.076839	-4.722369	-0.244327	0.280691	0.012976	-0.928089	-10.839950	30.975542	147.490186	-0.723034	0.460798	-0.514672	-0.446229	-0.880272	-0.161246	-0.527353	0.113076	0.842088			
65209						-6.565047	6.430614	5.054511	-0.968925	-8.114619	-3.239729	2.097127	0.181487	-4.280920	-0.267079	0.278609	0.009019	-0.922478	-11.084177	30.610766	144.663884	-0.702092	0.497774	-0.509203	-0.487723	-0.857175	-0.165460	-0.518838	0.132182	0.844592			
65210						-5.585961	7.732897	4.583995	-2.407765	-8.770261	-4.400877	1.601853	0.518558	-3.650260	-0.286157	0.278684	0.006030	-0.916740	-11.416345	30.498109	142.207037	-0.680899	0.528025	-0.507510	-0.521303	-0.836155	-0.170552	-0.514413	0.148438	0.844598			
65211						-4.126421	8.625629	4.032943	-3.911633	-8.735224	-5.802734	1.148925	0.978655	-2.830056	-0.300726	0.281399	0.003299	-0.911245	-11.763372	30.721297	140.230476	-0.660757	0.549927	-0.510862	-0.546214	-0.819106	-0.175260	-0.514830	0.163236	0.841608			
65212						-3.191718	9.767696	3.574832	-5.185804	-9.108117	-6.894142	0.828752	1.540985	-1.846207	-0.310307	0.287159	-0.000203	-0.906228	-12.022645	31.371821	138.808307	-0.642499	0.562300	-0.520590	-0.562534	-0.807419	-0.177847	-0.520337	0.178583	0.835079			
65213						-2.149091	10.646181	3.373994	-6.444185	-9.143961	-7.763115	0.652769	2.196559	-0.814516	-0.314913	0.296073	-0.005407	-0.901744	-12.095905	32.504741	137.960647	-0.626341	0.564740	-0.537369	-0.571144	-0.801601	-0.176722	-0.530558	0.196227	0.824623			
65214						-2.309411	10.699166	3.683022	-6.667606	-9.113713	-7.393672	0.530959	2.859134	0.255703	-0.314393	0.308120	-0.012704	-0.897807	-11.918818	34.142459	137.729541	-0.612439	0.556700	-0.561252	-0.572357	-0.801992	-0.170930	-0.545276	0.216553	0.809802			
65215						-12.494446	-0.719787	11.599765	1.614404	-3.596383	6.788889	1.112057	3.066908	1.495058	-0.309153	0.319988	-0.024826	-0.895218	-10.935148	36.034191	138.330127	-0.604064	0.537632	-0.588268	-0.569407	-0.807616	-0.153402	-0.557568	0.242299	0.793983			
65216						-19.432531	-18.171264	22.555277	10.039672	10.219838	21.985064	4.779692	0.136374	1.471831	-0.310028	0.312959	-0.048809	-0.896414	-7.592255	36.252512	139.355141	-0.611879	0.525276	-0.591345	-0.586376	-0.803001	-0.106546	-0.530817	0.281557	0.799349			
65217						-5.356689	15.033619	12.105791	-11.980942	-11.245322	1.642472	3.509577	-0.640113	-0.617434	-0.318396	0.304743	-0.062580	-0.895455	-5.804866	35.846645	138.973455	-0.611512	0.532077	-0.585618	-0.608359	-0.789416	-0.081983	-0.505918	0.306132	0.806431			
65218						-0.757911	6.254587	9.723649	-8.236806	-2.303261	-1.996576	1.417106	-0.623946	-0.729024	-0.323930	0.299941	-0.066853	-0.894782	-5.260490	35.455822	138.514647	-0.610210	0.539590	-0.580075	-0.619797	-0.781200	-0.074682	-0.493453	0.313957	0.811132			
65219						-9.696367	-0.391924	11.255479	0.686920	-1.406061	4.965939	0.934616	-0.955778	-0.273967	-0.326873	0.294230	-0.069081	-0.895439	-4.800235	34.896178	138.382038	-0.613166	0.544738	-0.572091	-0.626041	-0.776764	-0.068635	-0.481768	0.316068	0.817313			
65220						-4.652658	-2.853176	8.476857	0.604708	2.332147	-0.022937	0.342411	-1.079009	-0.271631	-0.328877	0.288952	-0.068490	-0.896469	-4.668553	34.271991	138.267914	-0.616694	0.550074	-0.563122	-0.629236	-0.774298	-0.067260	-0.473023	0.312858	0.823632			
65221						-4.443748	-7.595969	10.078324	2.822093	6.587469	1.485881	0.722613	-0.845754	0.183441	-0.329386	0.283899	-0.070610	-0.897731	-4.157445	33.796557	138.439317	-0.621812	0.551308	-0.556246	-0.631493	-0.773038	-0.060247	-0.463213	0.313803	0.828831			
65222						-3.329867	-7.133619	8.346533	2.769232	6.324921	-0.649393	1.146229	-0.535046	0.517138	-0.328812	0.279444	-0.075639	-0.898929	-3.285316	33.514094	138.827322	-0.627588	0.548883	-0.552142	-0.633431	-0.772323	-0.047781	-0.452658	0.319757	0.832380			
65223						-6.193883	-1.205858	9.513562	0.420070	0.630215	1.578078	1.451945	-0.372602	0.717393	-0.327749	0.275095	-0.082560	-0.900048	-2.174686	33.320048	139.331341	-0.633807	0.544557	-0.549315	-0.635404	-0.771529	-0.031709	-0.441080	0.328940	0.835013			
65224						-6.331912	3.813606	9.197018	-2.402220	-3.309996	1.254942	1.295068	-0.294256	0.765787	-0.326152	0.271348	-0.088983	-0.901153	-1.138192	33.168022	139.867847	-0.639990	0.539536	-0.547096	-0.636117	-0.771414	-0.016627	-0.431008	0.337376	0.836905			
65225						-5.399171	2.867473	9.122882	-2.248277	-2.001054	0.748549	1.125377	-0.225065	0.661532	-0.324795	0.268192	-0.094590	-0.902017	-0.244147	33.043267	140.322101	-0.645163	0.535204	-0.545272	-0.636677	-0.771122	-0.003572	-0.422383	0.344858	0.838251			
65226						-5.129868	2.669509	9.375191	-2.308605	-1.528064	0.848933	0.951211	-0.107828	0.555068	-0.323556	0.265916	-0.099479	-0.902610	0.512615	32.984420	140.709606	-0.649201	0.531183	-0.544411	-0.636995	-0.770831	0.007505	-0.415663	0.351659	0.838785			
65227						-4.953593	2.967924	9.401663	-2.552389	-1.576407	0.805098	0.757752	-0.007027	0.467462	-0.322457	0.264417	-0.103516	-0.902989	1.121633	32.976188	141.028737	-0.652210	0.527608	-0.544290	-0.637093	-0.770612	0.016421	-0.410772	0.357474	0.838736			
65228						-5.245030	2.599453	8.925781	-1.883494	-1.550361	0.578920	0.538629	0.084834	0.356630	-0.321448	0.263763	-0.106591	-0.903182	1.569888	33.023295	141.283546	-0.654201	0.524422	-0.544980	-0.636881	-0.770619	0.022970	-0.407926	0.362115	0.838134			
65229						-5.097693	0.489718	8.655156	-0.496338	0.108913	0.231194	0.443564	0.150291	0.299403	-0.320602	0.263562	-0.109238	-0.903225	1.938474	33.103721	141.491236	-0.655498	0.521570	-0.546156	-0.636735	-0.770562	0.028336	-0.406068	0.366331	0.837204			
65230						-5.828963	1.746412	8.150486	-0.592245	-1.375298	0.247868	0.362359	0.185819	0.303624	-0.319537	0.263670	-0.111609	-0.903282	2.268923	33.206811	141.714085	-0.656749	0.518407	-0.547663	-0.636119	-0.770880	0.033125	-0.405010	0.370133	0.836043			
65231						-5.903270	3.086498	7.789163	-1.236599	-2.540982	0.039230	0.227011	0.145929	0.199710	-0.318855	0.263848	-0.113138	-0.903280	2.477309	33.285213	141.854882	-0.657431	0.516328	-0.548807	-0.635734	-0.771062	0.036133	-0.404508	0.372650	0.835168			
65232						-5.646942	2.113255	7.776807	-0.776713	-1.639843	-0.141072	0.091904	0.083553	0.037814	-0.318680	0.264073	-0.113777	-0.903196	2.553084	33.335208	141.895151	-0.657417	0.515570	-0.549536	-0.635752	-0.770996	0.037216	-0.404503	0.373835	0.834641			
65233						-5.606260	0.997185	7.782408	-0.098003	-0.748791	-0.199150	0.008821	0.039756	-0.019850	-0.318762	0.264243	-0.113862	-0.903107	2.552433	33.358064	141.882731	-0.657133	0.515578	-0.549870	-0.635926	-0.770853	0.037197	-0.404691	0.374120	0.834422			
65234						-5.622562	0.527312	7.750507	0.221632	-0.404997	-0.234145	-0.013704	0.016719	-0.024944	-0.318764	0.264370	-0.113835	-0.903072	2.543389	33.371426	141.878714	-0.656995	0.515545	-0.550064	-0.635923	-0.770862	0.037059	-0.404918	0.374147	0.834300			
65235						-5.521550	0.550105	7.817562	0.112085	-0.346070	-0.232913	-0.005287	-0.000431	-0.007352	-0.318793	0.264375	-0.113809	-0.903064	2.538686	33.370951	141.873642	-0.656953	0.515606	-0.550057	-0.635958	-0.770837	0.036991	-0.404932	0.374115	0.834307			
65236						-5.523236	0.401147	7.945876	0.156992	-0.182797	-0.130439	0.009549	-0.009990	0.020296	-0.318637	0.264319	-0.113905	-0.903123	2.559578	33.367909	141.899873	-0.657212	0.515323	-0.550013	-0.635751	-0.770993	0.037297	-0.404836	0.374183	0.834323			
65237						-5.588473	0.010057	7.897633	0.471834	0.070105	-0.149552	0.048243	-0.008706	0.063351	-0.318422	0.264160	-0.114200	-0.903208	2.612055	33.360865	141.943012	-0.657653	0.514869	-0.549910	-0.635538	-0.771131	0.038064	-0.404455	0.374521	0.834356			
65238						-5.573357	-0.109088	7.922699	0.535228	0.189002	-0.142054	0.105758	0.000760	0.127378	-0.317904	0.263938	-0.114888	-0.903368	2.728481	33.361101	142.042774	-0.658547	0.513722	-0.549914	-0.635016	-0.771475	0.039759	-0.403820	0.375387	0.834275			
65239						-5.579938	0.230632	8.169551	0.236070	0.031524	0.080427	0.153908	0.012686	0.187550	-0.317255	0.263636	-0.115859	-0.903561	2.888673	33.362665	142.171709	-0.659690	0.512230	-0.549937	-0.634408	-0.771852	0.042091	-0.402909	0.376651	0.834145			
65240						-5.661845	1.016758	8.244575	-0.226021	-0.569191	0.221663	0.142425	0.038323	0.171408	-0.316566	0.263501	-0.116830	-0.903717	3.043269	33.382697	142.302684	-0.660707	0.510603	-0.550229	-0.633741	-0.772274	0.044331	-0.402292	0.377992	0.833836			
65241						-5.491667	0.865636	8.279733	-0.247835	-0.334981	0.151651	0.115678	0.053931	0.122288	-0.316137	0.263483	-0.117606	-0.903771	3.157882	33.409323	142.388500	-0.661268	0.509456	-0.550617	-0.633406	-0.772452	0.045985	-0.401898	0.379172	0.833491			
65242						-5.441811	0.648087	8.364533	-0.172247	-0.092604	0.185336	0.101609	0.077969	0.092167	-0.315727	0.263637	-0.118351	-0.903773	3.260338	33.454097	142.467060	-0.661625	0.508287	-0.551269	-0.633094	-0.772619	0.047451	-0.401802	0.380399	0.832977			
65243						-5.418764	0.480422	8.395700	-0.092061	0.076989	0.190670	0.112918	0.106275	0.081795	-0.315446	0.263884	-0.119144	-0.903695	3.359416	33.511734	142.527397	-0.661719	0.507252	-0.552108	-0.633013	-0.772597	0.048858	-0.401773	0.381822	0.832340			
65244						-5.463685	0.517274	8.380606	-0.079386	0.040251	0.204599	0.125962	0.136847	0.090729	-0.315039	0.264265	-0.120090	-0.903600	3.476850	33.589932	142.607584	-0.661829	0.505868	-0.553245	-0.632810	-0.772658	0.050519	-0.401913	0.383534	0.831485			
65245						-5.539516	0.566579	8.297353	-0.028128	-0.046296	0.179827	0.130737	0.161038	0.100237	-0.314665	0.264719	-0.121074	-0.903466	3.594784	33.678027	142.683302	-0.661820	0.504476	-0.554525	-0.632679	-0.772655	0.052177	-0.402135	0.385368	0.830530			
65246						-5.579489	0.663424	8.105984	0.012520	-0.190135	0.048421	0.144781	0.171585	0.111456	-0.314168	0.265214	-0.122185	-0.903344	3.732186	33.775003	142.779706	-0.661919	0.502794	-0.555933	-0.632415	-0.772738	0.054107	-0.402386	0.387395	0.829464			
65247						-5.632846	0.664076	8.073818	0.059029	-0.205003	0.051943	0.148562	0.173467	0.115416	-0.313740	0.265687	-0.123289	-0.903204	3.867035	33.869328	142.867105	-0.661955	0.501230	-0.557301	-0.632256	-0.772734	0.055997	-0.402577	0.389424	0.828420			
65248						-5.606816	0.720474	8.070527	0.006831	-0.210277	0.038432	0.153010	0.170035	0.126890	-0.313185	0.266152	-0.124455	-0.903100	4.015695	33.964434	142.974816	-0.662156	0.499427	-0.558678	-0.631923	-0.772852	0.058082	-0.402768	0.391501	0.827348			
65249						-5.673617	0.872633	7.997005	-0.015876	-0.364217	0.024514	0.150889	0.174163	0.131189	-0.312687	0.266613	-0.125591	-0.902979	4.158648	34.058139	143.073900	-0.662288	0.497732	-0.560034	-0.631669	-0.772907	0.060079	-0.402951	0.393546	0.826288			
65250						-5.639609	0.928932	8.035346	-0.089696	-0.349700	0.041475	0.135233	0.160805	0.127018	-0.312113	0.267063	-0.126662	-0.902895	4.297644	34.147536	143.182069	-0.662526	0.495956	-0.561326	-0.631264	-0.773085	0.062018	-0.403194	0.395433	0.825268			
65251						-5.699921	0.979605	8.033281	-0.081706	-0.396614	0.077627	0.116596	0.155154	0.117527	-0.311642	0.267500	-0.127595	-0.902797	4.415756	34.230581	143.271470	-0.662646	0.494435	-0.562525	-0.630962	-0.773198	0.063656	-0.403469	0.397113	0.824326			
65252						-5.684864	1.023212	8.061872	-0.132335	-0.389565	0.096355	0.095228	0.148361	0.103241	-0.311127	0.267971	-0.128434	-0.902716	4.522878	34.313559	143.363308	-0.662784	0.492885	-0.563722	-0.630552	-0.773410	0.065133	-0.403884	0.398625	0.823393			
65253						-5.660404	0.993754	8.075364	-0.138486	-0.330150	0.092413	0.083951	0.153290	0.090104	-0.310736	0.268467	-0.129179	-0.902597	4.612045	34.396510	143.434193	-0.662737	0.491578	-0.564917	-0.630300	-0.773511	0.066349	-0.404354	0.400039	0.822476			
65254						-5.711610	0.797658	8.031155	0.032929	-0.201585	0.072476	0.081148	0.156621	0.083721	-0.310284	0.269009	-0.129941	-0.902482	4.704277	34.484851	143.513606	-0.662716	0.490141	-0.566188	-0.629962	-0.773678	0.067601	-0.404913	0.401478	0.821499			
65255						-5.676449	0.814727	7.985143	0.012980	-0.197349	0.016312	0.081667	0.160531	0.088297	-0.309893	0.269542	-0.130685	-0.902350	4.792103	34.571828	143.584132	-0.662627	0.488814	-0.567439	-0.629714	-0.773775	0.068789	-0.405445	0.402905	0.820537			
65256						-5.750059	1.029905	7.926215	-0.054126	-0.403672	0.025141	0.082269	0.158751	0.087403	-0.309424	0.270088	-0.131460	-0.902235	4.886945	34.660999	143.666705	-0.662618	0.487335	-0.568720	-0.629357	-0.773950	0.070071	-0.406013	0.404359	0.819541			
65257						-5.761444	1.237326	7.814742	-0.136902	-0.597903	-0.044414	0.060558	0.146007	0.054707	-0.309165	0.270610	-0.132040	-0.902082	4.949343	34.741154	143.713513	-0.662374	0.486322	-0.569870	-0.629247	-0.773965	0.070895	-0.406582	0.405548	0.818671			
65258						-5.813605	1.284898	7.741050	-0.108539	-0.675880	-0.070809	0.038237	0.127745	0.012738	-0.308992	0.271134	-0.132467	-0.901922	4.988797	34.816188	143.742916	-0.662021	0.485540	-0.570946	-0.629205	-0.773953	0.071394	-0.407221	0.406506	0.817878			
65259						-5.781420	1.074745	7.772594	-0.017809	-0.475741	-0.077880	0.027370	0.103900	-0.025305	-0.309076	0.271570	-0.132724	-0.901724	4.999142	34.876241	143.731743	-0.661444	0.485315	-0.571806	-0.629490	-0.773713	0.071489	-0.407719	0.407232	0.817268			
65260						-5.743419	0.922451	7.804051	0.033079	-0.318894	-0.084471	0.034605	0.090067	-0.044071	-0.309177	0.271967	-0.133000	-0.901529	5.012790	34.932617	143.719637	-0.660887	0.485121	-0.572613	-0.629807	-0.773441	0.071635	-0.408131	0.407978	0.816690			
65261						-5.788965	0.675681	7.793405	0.216517	-0.148545	-0.084539	0.041314	0.081941	-0.045986	-0.309388	0.272296	-0.133257	-0.901319	5.022096	34.981167	143.692746	-0.660268	0.485144	-0.573307	-0.630286	-0.773043	0.071725	-0.408394	0.408705	0.816195			
65262						-5.736226	0.722886	7.807351	0.141160	-0.146393	-0.099798	0.053276	0.075696	-0.035972	-0.309488	0.272593	-0.133606	-0.901144	5.049120	35.028956	143.685387	-0.659820	0.484945	-0.573990	-0.630626	-0.772734	0.072068	-0.408593	0.409525	0.815685			
65263						-5.749424	0.717937	7.875104	0.121199	-0.114132	-0.037164	0.058975	0.075416	-0.022559	-0.309621	0.272850	-0.133965	-0.900967	5.077668	35.072608	143.674456	-0.659375	0.484812	-0.574614	-0.631021	-0.772376	0.072436	-0.408701	0.410356	0.815213			
65264						-5.761691	0.891680	7.854676	0.024660	-0.253687	-0.033979	0.063217	0.075339	-0.016892	-0.309649	0.273118	-0.134383	-0.900814	5.117968	35.119235	143.680340	-0.659048	0.484467	-0.575280	-0.631277	-0.772117	0.072967	-0.408833	0.411250	0.814696			
65265						-5.703622	0.981454	7.881488	-0.084743	-0.275729	-0.038783	0.066541	0.076940	-0.025770	-0.309806	0.273372	-0.134774	-0.900624	5.149635	35.163924	143.667330	-0.658576	0.484351	-0.575918	-0.631724	-0.771712	0.073377	-0.408903	0.412146	0.814208			
65266						-5.760033	0.887187	7.828470	0.029744	-0.243372	-0.056156	0.058942	0.077372	-0.035609	-0.309911	0.273668	-0.135151	-0.900442	5.180075	35.212664	143.660369	-0.658123	0.484140	-0.576613	-0.632086	-0.771379	0.073765	-0.409074	0.413016	0.813681			
65267						-5.757233	0.838331	7.794497	0.068385	-0.211235	-0.088830	0.063017	0.074230	-0.039163	-0.310125	0.273923	-0.135503	-0.900238	5.204234	35.256503	143.637884	-0.657577	0.484137	-0.577238	-0.632606	-0.770923	0.074068	-0.409147	0.413870	0.813210			
65268						-5.770592	1.004055	7.888084	-0.069887	-0.298805	0.007473	0.060335	0.068359	-0.042577	-0.310269	0.274181	-0.135862	-0.900055	5.232313	35.300472	143.625504	-0.657116	0.484016	-0.577864	-0.633019	-0.770550	0.074427	-0.409250	0.414706	0.812732			
65269						-5.751531	1.054357	7.907584	-0.126792	-0.314327	0.016187	0.051772	0.066844	-0.058643	-0.310560	0.274435	-0.136125	-0.899838	5.241864	35.341122	143.588955	-0.656477	0.484192	-0.578443	-0.633622	-0.770045	0.074525	-0.409343	0.415438	0.812311			
65270						-5.776503	1.026153	7.906734	-0.097141	-0.299147	0.027968	0.045757	0.061400	-0.066152	-0.310794	0.274700	-0.136376	-0.899638	5.251803	35.382342	143.559712	-0.655895	0.484279	-0.579030	-0.634129	-0.769618	0.074627	-0.409491	0.416127	0.811884			
65271						-5.779004	0.973358	7.831962	-0.036849	-0.286831	-0.035147	0.046218	0.061282	-0.077608	-0.311166	0.274949	-0.136579	-0.899403	5.250221	35.420811	143.509518	-0.655157	0.484623	-0.579577	-0.634832	-0.769044	0.074569	-0.409582	0.416789	0.811498			
65272						-5.737915	1.167353	7.803454	-0.181175	-0.423996	-0.067551	0.036086	0.054785	-0.097723	-0.311533	0.275221	-0.136732	-0.899169	5.241515	35.459894	143.457758	-0.654402	0.484979	-0.580133	-0.635505	-0.768503	0.074410	-0.409747	0.417371	0.811116			
65273						-5.772244	1.055132	7.777882	-0.083953	-0.363858	-0.076769	0.030919	0.050189	-0.121218	-0.312088	0.275474	-0.136789	-0.898891	5.212930	35.494285	143.376244	-0.653431	0.485701	-0.580622	-0.636429	-0.767780	0.073974	-0.409861	0.417861	0.810806			
65274						-5.802931	1.039859	7.722036	-0.038727	-0.389921	-0.105391	0.014217	0.039377	-0.130530	-0.312581	0.275732	-0.136775	-0.898642	5.177720	35.526222	143.300540	-0.652529	0.486371	-0.581075	-0.637224	-0.767171	0.073446	-0.410062	0.418201	0.810529			
65275						-5.600898	1.090501	7.788188	-0.238120	-0.304955	-0.165646	0.003831	0.039568	-0.138389	-0.313183	0.275991	-0.136670	-0.898369	5.126083	35.555340	143.206206	-0.651491	0.487268	-0.581489	-0.638147	-0.766476	0.072689	-0.410278	0.418432	0.810300			
65276						-5.656753	1.108916	7.906417	-0.271608	-0.298663	-0.036339	-0.022063	0.054552	-0.143600	-0.313674	0.276383	-0.136498	-0.898103	5.065201	35.596461	143.122249	-0.650442	0.487971	-0.582073	-0.638875	-0.765954	0.071791	-0.410809	0.418568	0.809961			
65277						-5.667765	1.058415	7.890547	-0.237565	-0.275554	-0.046821	-0.032481	0.065492	-0.149824	-0.314258	0.276823	-0.136255	-0.897800	4.988814	35.640773	143.021331	-0.649222	0.488845	-0.582701	-0.639719	-0.765353	0.070672	-0.411424	0.418647	0.809608			
65278						-5.732149	0.960904	7.896624	-0.149297	-0.232333	-0.011603	-0.042898	0.082577	-0.152925	-0.314742	0.277378	-0.136021	-0.897495	4.912967	35.698107	142.932394	-0.647997	0.489501	-0.583514	-0.640418	-0.764871	0.069550	-0.412268	0.418761	0.809119			
65279						-5.882348	0.575972	7.805894	0.217641	-0.052768	-0.024144	-0.044899	0.085355	-0.137842	-0.315242	0.277918	-0.135769	-0.897191	4.834766	35.752947	142.840826	-0.646768	0.490198	-0.584291	-0.641129	-0.764379	0.068399	-0.413091	0.418844	0.808656			
65280						-5.804372	0.380018	7.749881	0.303674	0.111425	-0.128104	-0.020944	0.085132	-0.093592	-0.315488	0.278410	-0.135719	-0.896959	4.795624	35.808683	142.793440	-0.645910	0.490389	-0.585081	-0.641531	-0.764095	0.067799	-0.413809	0.419140	0.808136			
65281						-5.940905	0.522038	7.746405	0.292325	-0.064692	-0.041095	-0.016481	0.078583	-0.058027	-0.315673	0.278820	-0.135695	-0.896770	4.766106	35.855716	142.757464	-0.645219	0.490503	-0.585746	-0.641842	-0.763874	0.067343	-0.414405	0.419407	0.807692			
65282						-5.924397	0.856423	7.746570	0.059030	-0.308978	-0.027886	-0.006670	0.070757	-0.046523	-0.315740	0.279193	-0.135752	-0.896622	4.753786	35.900979	142.742046	-0.644719	0.490397	-0.586386	-0.642001	-0.763760	0.067131	-0.414937	0.419741	0.807245			
65283						-5.871270	0.880210	7.776561	-0.010379	-0.286680	-0.033158	-0.010836	0.066088	-0.050826	-0.315909	0.279534	-0.135743	-0.896458	4.729962	35.940508	142.710350	-0.644125	0.490508	-0.586945	-0.642287	-0.763551	0.066762	-0.415415	0.419990	0.806870			
65284						-5.794986	0.880036	7.732734	-0.048794	-0.265053	-0.113261	-0.018956	0.071143	-0.050764	-0.315977	0.279931	-0.135739	-0.896311	4.708805	35.986177	142.691933	-0.643595	0.490431	-0.587590	-0.642421	-0.763468	0.066425	-0.416029	0.420231	0.806428			
65285						-5.921001	0.899120	7.603000	0.066185	-0.395213	-0.142542	-0.037423	0.061668	-0.034174	-0.316036	0.280282	-0.135627	-0.896197	4.676428	36.022372	142.671673	-0.643127	0.490434	-0.588101	-0.642489	-0.763452	0.065939	-0.416648	0.420256	0.806095			
65286						-5.864668	0.613773	7.667526	0.179591	-0.120445	-0.142359	-0.032752	0.065342	-0.006068	-0.315888	0.280644	-0.135615	-0.896137	4.665700	36.062623	142.684472	-0.642907	0.490040	-0.588669	-0.642277	-0.763647	0.065755	-0.417313	0.420363	0.805695			
65287						-6.004255	0.647865	7.553781	0.290026	-0.259614	-0.149411	-0.006794	0.057767	0.024652	-0.315730	0.280889	-0.135717	-0.896101	4.675175	36.093831	142.705528	-0.642832	0.489609	-0.589109	-0.642094	-0.763791	0.065862	-0.417710	0.420602	0.805365			
65288						-5.936582	0.659541	7.683500	0.183539	-0.175087	-0.083873	0.003657	0.033656	0.059880	-0.315359	0.281007	-0.135909	-0.896165	4.711649	36.112919	142.763035	-0.643167	0.488845	-0.589379	-0.641611	-0.764154	0.066358	-0.417937	0.420831	0.805127			
65289						-5.854517	0.701774	7.769053	0.069256	-0.125590	-0.060484	0.006725	0.030382	0.096959	-0.314914	0.281059	-0.136130	-0.896272	4.758100	36.125043	142.833666	-0.643670	0.487976	-0.589549	-0.641019	-0.764595	0.067001	-0.418072	0.421039	0.804949			
65290						-5.634308	1.203804	8.140351	-0.547216	-0.237996	0.142402	0.024754	0.035733	0.075644	-0.314502	0.281143	-0.136443	-0.896343	4.813317	36.144492	142.902413	-0.644095	0.487083	-0.589824	-0.640522	-0.764944	0.067760	-0.418178	0.421439	0.804684			
65291						-5.785382	0.428328	8.071821	0.075895	0.260861	0.123841	0.036917	0.071490	0.058740	-0.314242	0.281357	-0.136810	-0.896311	4.862656	36.181821	142.948558	-0.644180	0.486332	-0.590350	-0.640302	-0.765070	0.068420	-0.418384	0.422077	0.804243			
65292						-5.690939	0.291617	8.112611	0.084521	0.441604	0.091055	0.055608	0.103601	0.098382	-0.313725	0.281680	-0.137399	-0.896301	4.947589	36.238692	143.037540	-0.644466	0.484979	-0.591150	-0.639789	-0.765397	0.069561	-0.418729	0.423041	0.803556			
65293						-5.780066	0.595364	8.011090	-0.011076	0.139192	0.082850	0.068965	0.133172	0.128212	-0.313156	0.282072	-0.138104	-0.896268	5.046838	36.307650	143.136895	-0.644737	0.483433	-0.592121	-0.639254	-0.765721	0.070891	-0.419128	0.424221	0.802725			
65294						-5.777198	0.781998	8.152961	-0.194010	0.078711	0.208013	0.073978	0.170752	0.136542	-0.312449	0.282640	-0.138933	-0.896207	5.161072	36.400588	143.257253	-0.644980	0.481502	-0.593427	-0.638575	-0.766146	0.072404	-0.419789	0.425647	0.801624			
65295						-5.784837	0.900675	7.996649	-0.204084	-0.060765	0.095721	0.053990	0.198606	0.146167	-0.311733	0.283336	-0.139698	-0.896118	5.262405	36.505639	143.374142	-0.645087	0.479536	-0.594902	-0.637862	-0.766614	0.073722	-0.420708	0.427022	0.800410			
65296						-5.816793	0.984197	7.955619	-0.226521	-0.133023	0.088147	0.069603	0.236698	0.142319	-0.310947	0.284200	-0.140618	-0.895974	5.379937	36.635449	143.503644	-0.645084	0.477274	-0.596721	-0.637128	-0.767077	0.075237	-0.421822	0.428722	0.798914			
65297						-5.746686	0.962513	7.972680	-0.274682	-0.049870	0.058303	0.066315	0.263302	0.137260	-0.310241	0.285172	-0.141526	-0.895767	5.488112	36.777511	143.619478	-0.644854	0.475089	-0.598709	-0.636526	-0.767441	0.076604	-0.423081	0.430492	0.797295			
65298						-5.864136	0.819113	7.829375	-0.058340	-0.028915	0.003311	0.071157	0.287813	0.141322	-0.309425	0.286262	-0.142529	-0.895542	5.609387	36.936039	143.752910	-0.644621	0.472605	-0.600923	-0.635808	-0.767883	0.078129	-0.424514	0.432435	0.795479			
65299						-5.746501	1.106709	7.930591	-0.372601	-0.121394	0.035546	0.072766	0.305027	0.148787	-0.308646	0.287400	-0.143546	-0.895284	5.729226	37.100848	143.881148	-0.644278	0.470140	-0.603220	-0.635161	-0.768265	0.079620	-0.426000	0.434439	0.793591			
65300						-5.829102	1.147731	7.988466	-0.384330	-0.134885	0.134438	0.076027	0.336666	0.139531	-0.307808	0.288700	-0.144643	-0.894978	5.856099	37.286809	144.018238	-0.643813	0.467445	-0.605805	-0.634479	-0.768666	0.081177	-0.427716	0.436633	0.791461			
65301						-5.820928	1.021401	8.065858	-0.360274	0.031774	0.179990	0.055552	0.366206	0.131589	-0.307034	0.290150	-0.145652	-0.894611	5.962911	37.487061	144.140192	-0.643087	0.464830	-0.608582	-0.633873	-0.769032	0.082432	-0.429702	0.438775	0.789197			
65302						-5.939118	1.012171	8.052237	-0.293288	0.014171	0.239663	0.098448	0.419327	0.123069	-0.306240	0.291794	-0.146950	-0.894136	6.101024	37.720553	144.273438	-0.642147	0.461881	-0.611811	-0.633398	-0.769246	0.084069	-0.431803	0.441505	0.786524			
65303						-5.755574	0.360084	8.315939	-0.136626	0.757754	0.277806	0.106152	0.481842	0.129723	-0.305460	0.293681	-0.148358	-0.893552	6.243510	37.986336	144.405009	-0.640892	0.458749	-0.615474	-0.633028	-0.769369	0.085716	-0.434204	0.444546	0.783483			
65304						-5.948798	0.876013	8.457368	-0.430159	0.383531	0.548308	0.121902	0.562149	0.156602	-0.304442	0.295898	-0.150026	-0.892889	6.419445	38.298375	144.576220	-0.639519	0.454882	-0.619757	-0.632451	-0.769615	0.087745	-0.437060	0.448080	0.779873			
65305						-5.819331	0.691661	8.677568	-0.527614	0.739611	0.618868	0.176449	0.659411	0.144967	-0.303560	0.298455	-0.152037	-0.891998	6.621416	38.663604	144.736846	-0.637553	0.450797	-0.624747	-0.632302	-0.769472	0.090036	-0.440137	0.452431	0.775619			
65306						-5.981664	0.894795	8.906463	-0.696259	0.681986	0.909044	0.209635	0.780350	0.126891	-0.302634	0.301526	-0.154378	-0.890877	6.850130	39.100663	144.909414	-0.634989	0.446122	-0.630685	-0.632318	-0.769159	0.092560	-0.443804	0.457568	0.770499			
65307						-5.926021	-0.083341	9.228327	-0.308005	1.687421	1.019833	0.287225	0.917759	0.130838	-0.301773	0.305066	-0.157248	-0.889461	7.129383	39.612750	145.088813	-0.631735	0.440888	-0.637595	-0.632773	-0.768412	0.095611	-0.447782	0.463854	0.764415			
65308						-6.318824	-0.145916	8.939053	0.051462	1.527611	1.027883	0.402954	1.055364	0.163034	-0.300756	0.309024	-0.160910	-0.887783	7.510022	40.201839	145.321953	-0.628100	0.434561	-0.645482	-0.633462	-0.767308	0.099825	-0.451903	0.471589	0.757224			
65309						-6.175343	0.149015	8.761066	-0.205790	1.393858	0.814006	0.492417	1.163255	0.186660	-0.299746	0.313283	-0.165137	-0.885853	7.960619	40.847145	145.579802	-0.624012	0.427593	-0.654043	-0.634531	-0.765764	0.104764	-0.456047	0.480385	0.749168			
65310						-5.752246	0.174917	9.000712	-0.659082	1.798939	0.697270	0.582682	1.296512	0.219338	-0.298543	0.317967	-0.170029	-0.883662	8.503961	41.565313	145.897655	-0.619537	0.419495	-0.663473	-0.635750	-0.763924	0.110642	-0.460430	0.490350	0.739974			
65311						-5.511002	0.079463	9.649454	-1.117755	2.440951	0.970582	0.676924	1.511236	0.282495	-0.297076	0.323374	-0.175725	-0.881076	9.156518	42.395337	146.292023	-0.614350	0.409844	-0.674242	-0.637144	-0.761733	0.117521	-0.465427	0.501788	0.729100			
65312						-5.200544	0.479939	10.040075	-1.830447	2.639129	1.039011	0.781451	1.796013	0.345045	-0.295168	0.329808	-0.182410	-0.877969	9.950982	43.377729	146.801445	-0.608205	0.397976	-0.686805	-0.638617	-0.759205	0.125602	-0.471439	0.514997	0.715907			
65313						-5.249499	0.322705	10.176644	-1.866464	3.019930	1.078408	0.890420	2.096182	0.389194	-0.292997	0.337310	-0.190048	-0.874218	10.883111	44.517889	147.408083	-0.600749	0.384076	-0.701132	-0.640496	-0.756069	0.134625	-0.478398	0.529948	0.700207			
65314						-5.166502	-0.458350	10.241471	-1.563463	3.923345	0.861826	1.105184	2.466765	0.485648	-0.290315	0.345976	-0.199314	-0.869650	12.080456	45.847174	148.203310	-0.592035	0.367030	-0.717484	-0.642862	-0.751982	0.145783	-0.486029	0.547552	0.681149			
65315						-4.990399	-0.987464	10.486344	-1.575355	4.814253	0.683563	1.408331	2.958672	0.643345	-0.286966	0.356099	-0.210824	-0.863943	13.668972	47.416887	149.277038	-0.581688	0.345697	-0.736297	-0.645993	-0.746408	0.159903	-0.494300	0.568656	0.657494			
65316						-4.136245	-1.685695	10.518854	-1.772911	5.993996	-0.246754	1.826203	3.573821	0.839632	-0.282727	0.367946	-0.225305	-0.856691	15.829882	49.273328	150.768394	-0.569363	0.318619	-0.757831	-0.650218	-0.738607	0.177977	-0.503032	0.594089	0.627708			
65317						-6.672128	-2.464999	10.664540	-0.050972	6.296718	1.351595	2.479535	4.356072	0.999965	-0.278007	0.381843	-0.243854	-0.847020	18.810387	51.484875	152.791482	-0.553816	0.284727	-0.782444	-0.657183	-0.726495	0.200789	-0.511272	0.625408	0.589462			
65318						-10.081892	-3.125428	9.906664	2.500412	5.941173	3.147141	3.446539	4.569033	1.187154	-0.273855	0.394773	-0.266969	-0.835395	22.836521	53.688067	155.372696	-0.538315	0.246770	-0.805805	-0.668339	-0.707462	0.229827	-0.513362	0.662270	0.545763			
65319						-13.958581	-1.385537	10.130536	3.206472	4.678734	6.532036	4.426786	4.018338	1.204547	-0.272072	0.403695	-0.293217	-0.822819	27.632713	55.475958	158.143604	-0.526014	0.210991	-0.823888	-0.684473	-0.680001	0.262861	-0.504784	0.702198	0.502108			
65320						-14.327084	-1.367416	9.690903	3.637910	5.106289	6.363875	5.354576	3.148315	1.126413	-0.273504	0.407492	-0.321655	-0.809743	32.882117	56.707133	160.770039	-0.518291	0.180792	-0.835876	-0.705080	-0.643467	0.298015	-0.483979	0.743818	0.460976			
65321						-14.394850	0.023593	7.444689	3.932163	3.253414	5.567378	6.231480	2.338530	0.986341	-0.278292	0.406613	-0.351911	-0.795850	38.368876	57.466250	163.051391	-0.514438	0.156775	-0.843075	-0.729142	-0.597424	0.333822	-0.451338	0.786452	0.421649			
65322						-12.821588	3.436091	7.483639	0.814709	2.171792	5.246498	6.683765	1.542316	0.722438	-0.286157	0.401918	-0.381907	-0.781488	43.603860	57.860873	164.712117	-0.513152	0.140266	-0.846759	-0.754247	-0.544523	0.366888	-0.409618	0.826934	0.385218			
65323						-8.967749	9.468081	11.497058	-7.135337	3.512449	5.644799	5.487362	0.692309	0.157471	-0.295139	0.396310	-0.404512	-0.769546	47.301411	58.074010	165.363976	-0.511663	0.133622	-0.848732	-0.774870	-0.498526	0.388649	-0.371183	0.856514	0.358617			
65324						-7.885902	4.372073	15.003648	-4.789880	9.760785	3.905272	3.116164	-0.295796	-0.997338	-0.305744	0.392507	-0.414032	-0.762257	48.259397	58.381584	164.387977	-0.504918	0.141090	-0.851558	-0.791132	-0.470196	0.391185	-0.345207	0.871212	0.349031			
65325						-7.509771	-2.913073	13.824544	1.420206	12.296486	0.325106	1.610224	-1.054577	-2.228606	-0.319550	0.390589	-0.414144	-0.757504	47.037371	58.917513	161.875749	-0.490656	0.160601	-0.856425	-0.807641	-0.452744	0.377807	-0.327065	0.877057	0.351850			
65326						-2.023146	-6.611296	10.298496	3.113761	11.637208	-6.858098	1.626539	-1.511457	-2.609634	-0.335762	0.387560	-0.412722	-0.752809	45.177617	59.391968	158.619638	-0.474122	0.185619	-0.860671	-0.825439	-0.433849	0.361146	-0.306365	0.881658	0.358914			
65327						0.081658	-3.609946	8.792012	0.381250	9.317520	-7.977119	1.919116	-1.374415	-2.862222	-0.353034	0.384997	-0.412027	-0.746578	43.328959	59.971761	155.203463	-0.454289	0.209878	-0.865779	-0.844393	-0.411202	0.343386	-0.283941	0.887054	0.364023			
65328						-0.290728	-1.257436	9.022416	-1.270327	8.462101	-6.674959	1.695095	-1.137816	-3.006061	-0.369909	0.383817	-0.410473	-0.739840	41.279997	60.645380	151.719898	-0.431703	0.232255	-0.871602	-0.862441	-0.389358	0.323413	-0.264251	0.891324	0.368393			
65329						-1.213284	-1.010812	9.924414	-1.161772	8.946068	-5.385056	1.156542	-1.028889	-2.996584	-0.385275	0.383959	-0.407044	-0.733794	38.891658	61.299432	148.229815	-0.408277	0.252849	-0.877141	-0.878002	-0.371756	0.301514	-0.249846	0.893233	0.373781			
65330						-1.509652	-2.012637	10.353593	-0.151135	9.584323	-5.160580	0.699401	-1.052776	-2.833264	-0.399239	0.384382	-0.402070	-0.728834	36.217795	61.805019	144.724013	-0.385718	0.272861	-0.881345	-0.891054	-0.357896	0.279164	-0.239257	0.893005	0.381181			
65331						-1.306885	-2.482520	10.374507	0.276984	9.760647	-5.323661	0.429395	-1.169929	-2.607004	-0.411877	0.384453	-0.396252	-0.724939	33.443658	62.107279	141.301256	-0.365105	0.292491	-0.883825	-0.901853	-0.346683	0.257822	-0.230996	0.891212	0.390360			
65332						-0.669647	-2.237554	10.219750	-0.057131	9.654202	-5.727522	0.230325	-1.302754	-2.364258	-0.423592	0.383801	-0.389792	-0.722031	30.629148	62.184908	137.957173	-0.346532	0.312489	-0.884458	-0.910899	-0.337264	0.237733	-0.224007	0.888034	0.401518			
65333						-0.053476	-1.907274	10.028406	-0.461626	9.502774	-6.112553	-0.025650	-1.390160	-2.094443	-0.433783	0.382880	-0.382710	-0.720256	27.898916	62.075884	134.884466	-0.330471	0.331806	-0.883569	-0.917933	-0.330731	0.219125	-0.219517	0.883471	0.413873			
65334						0.090281	-1.529181	9.991692	-0.803124	9.330592	-6.008361	-0.327881	-1.462163	-1.803307	-0.442605	0.381628	-0.374840	-0.719691	25.249648	61.777926	132.080931	-0.316921	0.350979	-0.881121	-0.923177	-0.327191	0.201718	-0.217496	0.877360	0.427709			
65335						0.000512	-1.344919	10.196620	-0.979702	9.347113	-5.635554	-0.651504	-1.569532	-1.498206	-0.449669	0.380197	-0.366144	-0.720546	22.755516	61.304774	129.667633	-0.306496	0.369601	-0.877186	-0.926428	-0.327472	0.185722	-0.218610	0.869573	0.442777			
65336						-0.579452	-1.222356	10.475847	-0.995211	9.240926	-4.794320	-0.928785	-1.738184	-1.179624	-0.455519	0.378021	-0.356577	-0.722810	20.405015	60.613645	127.571751	-0.299204	0.388921	-0.871331	-0.928096	-0.330710	0.171083	-0.221620	0.859867	0.459906			
65337						-1.067624	-0.948085	10.749954	-1.211650	9.071315	-3.995666	-1.171370	-1.982010	-0.857979	-0.459908	0.375018	-0.346186	-0.726637	18.270751	59.704111	125.884004	-0.295691	0.408721	-0.863432	-0.928025	-0.337279	0.158154	-0.226577	0.848051	0.479033			
65338						-1.182689	-0.518112	10.903800	-1.672122	8.849958	-3.532956	-1.414127	-2.243001	-0.540027	-0.463298	0.370873	-0.334789	-0.731932	16.301096	58.552873	124.515490	-0.295617	0.429876	-0.853122	-0.926533	-0.346543	0.146437	-0.232694	0.833735	0.500739			
65339						-1.535369	-0.230056	10.899461	-1.909702	8.401255	-2.959116	-1.650323	-2.486099	-0.226234	-0.465178	0.365927	-0.322539	-0.738699	14.553847	57.213569	123.567952	-0.299414	0.451202	-0.840695	-0.923304	-0.359157	0.136076	-0.240543	0.816960	0.524133			
65340						-1.739304	0.168573	10.955258	-2.309301	7.977846	-2.458678	-1.864022	-2.698493	0.084674	-0.466005	0.359952	-0.309421	-0.746681	12.976592	55.682078	122.938190	-0.306549	0.473160	-0.825922	-0.918667	-0.374197	0.126599	-0.249155	0.797556	0.549386			
65341						-1.927430	0.749996	10.887430	-2.852542	7.346192	-2.021826	-2.059373	-2.858586	0.385140	-0.465213	0.353418	-0.295722	-0.755792	11.608618	54.034205	122.707170	-0.317346	0.494181	-0.809368	-0.912235	-0.392251	0.118180	-0.259073	0.775838	0.575289			
65342						-2.639784	1.443297	11.028022	-3.369270	6.510581	-1.042606	-2.248494	-2.960969	0.657142	-0.463330	0.346260	-0.281366	-0.765678	10.357746	52.277027	122.735092	-0.330858	0.514671	-0.790978	-0.904375	-0.412317	0.110006	-0.269517	0.751737	0.601874			
65343						-3.589788	2.242211	11.238685	-3.894512	5.469475	0.143292	-2.441788	-3.063553	0.893580	-0.459901	0.338854	-0.266417	-0.776332	9.217651	50.459707	123.065422	-0.347338	0.533519	-0.771177	-0.894625	-0.435026	0.101977	-0.281075	0.725335	0.628400			
65344						-4.354034	3.139508	11.447591	-4.524564	4.372192	1.153244	-2.630837	-3.116834	1.097949	-0.455521	0.331102	-0.250746	-0.787400	8.100712	48.578190	123.560741	-0.365745	0.551309	-0.749859	-0.883399	-0.459254	0.093228	-0.292978	0.696523	0.654996			
65345						-5.162173	4.142393	11.558900	-5.153714	3.031822	2.088433	-2.801416	-3.126288	1.247313	-0.449786	0.323523	-0.234608	-0.798739	7.015222	46.708002	124.262648	-0.386050	0.566721	-0.727869	-0.870326	-0.485303	0.083749	-0.305774	0.665814	0.680583			
65346						-6.056619	5.238292	11.349457	-5.664549	1.284455	2.803403	-2.952977	-3.084461	1.352663	-0.443405	0.316014	-0.217906	-0.809966	5.888907	44.842604	125.035777	-0.407055	0.580563	-0.705162	-0.856008	-0.511819	0.072748	-0.318680	0.633236	0.705305			
65347						-6.647203	6.312583	10.793058	-6.090000	-0.558361	2.958095	-3.077543	-2.955907	1.436446	-0.435836	0.309214	-0.201110	-0.820968	4.765208	43.079402	125.955821	-0.428867	0.591243	-0.683011	-0.839987	-0.539203	0.060677	-0.332407	0.599743	0.727883			
65348						-7.043696	7.117717	9.841019	-6.164161	-2.392430	2.571621	-3.176632	-2.690007	1.527629	-0.427534	0.303321	-0.184414	-0.831385	3.616744	41.455717	126.940670	-0.450421	0.599018	-0.662041	-0.822765	-0.566411	0.047278	-0.346667	0.565999	0.747975			
65349						-7.710256	7.684855	8.787340	-5.812127	-4.259497	2.177818	-3.245835	-2.281480	1.627374	-0.417856	0.299199	-0.168477	-0.841125	2.500898	40.100146	128.078136	-0.471753	0.602122	-0.644126	-0.803755	-0.594024	0.033377	-0.362529	0.533465	0.764191			
65350						-8.649545	8.305209	7.952622	-5.379918	-6.133871	2.038237	-3.302377	-1.778100	1.697357	-0.407448	0.296972	-0.153272	-0.849883	1.366431	39.026862	129.256571	-0.491587	0.601531	-0.629685	-0.783602	-0.620987	0.018525	-0.379883	0.502529	0.776630			
65351						-10.327132	8.623161	7.522828	-4.425854	-7.984870	2.606467	-3.351029	-1.233667	1.733329	-0.395976	0.297163	-0.139070	-0.857646	0.234133	38.305751	130.515735	-0.509795	0.596561	-0.619858	-0.761867	-0.647726	0.003207	-0.399585	0.473884	0.784708			
65352						-12.487213	8.664145	7.057923	-2.938288	-9.879319	3.399497	-3.317639	-0.797062	1.656747	-0.384657	0.298963	-0.125605	-0.864224	-0.935463	37.833654	131.692768	-0.525321	0.589757	-0.613371	-0.739962	-0.672525	-0.012894	-0.420112	0.447098	0.789690			
65353						-17.502654	5.950441	6.348557	2.235047	-11.552048	5.795088	-2.978115	-0.443246	1.479620	-0.374039	0.301797	-0.114085	-0.869481	-1.980363	37.600894	132.772294	-0.538027	0.581580	-0.610158	-0.719301	-0.694159	-0.027379	-0.439469	0.424157	0.791807			
65354						-18.274025	3.249886	5.712137	5.124773	-10.426209	5.748599	-1.485636	-0.394480	1.895898	-0.363949	0.301626	-0.109656	-0.874379	-2.004627	37.393803	134.123776	-0.553126	0.570308	-0.607290	-0.702608	-0.711034	-0.027791	-0.447653	0.411315	0.793994			
65355						-17.118095	13.706644	2.978445	-1.285577	-18.288786	2.581879	-0.874968	-0.286546	1.821533	-0.354807	0.300945	-0.108057	-0.878560	-1.705380	37.263049	135.442280	-0.567088	0.558400	-0.605475	-0.688477	-0.724871	-0.023685	-0.452117	0.403425	0.795512			
65356						-18.521824	12.386803	2.922694	0.827240	-18.170441	3.384758	-1.375460	-0.422560	1.318539	-0.347308	0.300690	-0.103177	-0.882223	-1.924769	37.029087	136.378875	-0.577925	0.550757	-0.602220	-0.674855	-0.737463	-0.026814	-0.458883	0.390915	0.797879			
65357						-18.998388	8.428587	1.100682	4.902405	-16.266210	2.210704	-1.844929	-0.404187	0.768574	-0.341338	0.301693	-0.095494	-0.885071	-2.643245	36.814811	136.940783	-0.584940	0.546597	-0.599231	-0.661836	-0.748739	-0.036920	-0.468848	0.374996	0.799725			
65358						-18.629038	4.468394	-0.174681	8.094925	-13.607511	0.973531	-1.841533	-0.566211	0.396155	-0.337160	0.302035	-0.086926	-0.887436	-3.521763	36.490450	137.232559	-0.590197	0.545906	-0.594689	-0.650924	-0.757534	-0.049385	-0.477457	0.357951	0.802438			
65359						-17.398529	2.104680	-1.451850	9.644005	-11.612415	-0.791081	-1.356552	-0.643821	0.238686	-0.334325	0.301346	-0.080186	-0.889375	-4.179510	36.131163	137.432609	-0.594834	0.546353	-0.589636	-0.643009	-0.763593	-0.058864	-0.482403	0.344126	0.805521			
65360						-14.974268	1.817221	-3.145344	9.293994	-10.640416	-3.662370	-0.731137	-0.493191	0.278647	-0.332249	0.300195	-0.076499	-0.890865	-4.470609	35.852505	137.646974	-0.598986	0.546050	-0.585701	-0.637908	-0.767516	-0.063179	-0.484034	0.335780	0.808061			
65361						-12.392362	3.625320	-4.622432	7.376489	-11.083084	-6.521378	-0.382156	-0.049226	0.378994	-0.330009	0.300459	-0.075290	-0.891712	-4.530548	35.841007	137.916742	-0.601638	0.543302	-0.585538	-0.633789	-0.770851	-0.064033	-0.486152	0.332582	0.808112			
65362						-10.489840	5.958559	-5.525890	5.253585	-12.112178	-8.482019	-0.498802	0.656850	0.456011	-0.327023	0.303994	-0.074817	-0.891654	-4.650761	36.231438	138.195723	-0.601288	0.537694	-0.591048	-0.628670	-0.774917	-0.065404	-0.493181	0.332248	0.803980			
65363						-15.783061	3.100111	-5.451653	10.257715	-12.632743	-4.952343	-0.787608	1.456328	0.710484	-0.322104	0.311490	-0.074771	-0.890861	-4.850469	37.096284	138.615275	-0.598446	0.527318	-0.603156	-0.620479	-0.781317	-0.067443	-0.506821	0.333885	0.794767			
65364						-18.561566	-1.683237	-4.368040	14.422930	-9.732822	-1.833025	0.856834	1.710923	2.353234	-0.312299	0.316797	-0.084997	-0.891563	-3.376875	38.168576	140.222485	-0.604219	0.503015	-0.617977	-0.610722	-0.790490	-0.046310	-0.511799	0.349431	0.784831			
65365						-22.243418	13.235414	-4.038784	7.687297	-22.774971	0.596291	1.801548	1.770772	3.951779	-0.296703	0.320104	-0.102035	-0.893918	-0.557261	39.260115	143.077921	-0.619001	0.465132	-0.632842	-0.595779	-0.803113	-0.007531	-0.511746	0.372373	0.774244			
65366						-27.226948	19.680709	1.911290	4.607775	-27.403492	9.159395	0.626049	1.119407	4.026202	-0.279057	0.322065	-0.112933	-0.897579	1.716235	39.880385	146.081767	-0.636802	0.428208	-0.641187	-0.573694	-0.818747	0.022983	-0.515128	0.382481	0.767040			
65367						-10.701698	16.320645	0.442110	-2.388465	-17.834943	-2.246706	-2.617706	-0.326316	3.272003	-0.260285	0.322329	-0.105981	-0.903949	1.771573	39.636005	148.511805	-0.656712	0.402247	-0.637908	-0.538890	-0.842040	0.023808	-0.527567	0.359397	0.769744			
65368						-4.394900	-3.682634	8.393452	0.359091	4.343058	-0.629357	-2.873287	-0.274932	3.184017	-0.241262	0.323086	-0.097794	-0.909860	1.636595	39.428396	150.884526	-0.674817	0.375837	-0.635113	-0.502220	-0.864459	0.022060	-0.540738	0.333853	0.772104			
65369						-3.930259	-7.080892	9.248109	1.089496	7.760827	-0.342151	-1.942995	-0.134566	2.925231	-0.224848	0.323332	-0.093510	-0.914416	1.896691	39.299226	153.048204	-0.689800	0.350740	-0.633370	-0.471679	-0.881399	0.025612	-0.549268	0.316415	0.773425			
65370						-6.070140	5.553585	6.576538	-1.954489	-4.927864	-0.711430	-0.682911	-0.154887	2.504427	-0.212280	0.322213	-0.094296	-0.917728	2.681550	39.156551	154.905739	-0.702232	0.328864	-0.631441	-0.450398	-0.892091	0.036278	-0.551373	0.309875	0.774574			
65371						-8.924152	10.224602	4.920809	-0.917271	-10.515553	0.034785	-0.563311	-0.384621	1.937816	-0.202655	0.320110	-0.094428	-0.920622	3.249022	38.878599	156.318113	-0.712922	0.312682	-0.627672	-0.433591	-0.900029	0.044121	-0.551128	0.303608	0.777226			
65372						-8.786461	4.119840	4.861071	1.869193	-4.957310	-0.339862	-0.287167	-0.649053	1.263912	-0.196584	0.316825	-0.094522	-0.923061	3.656426	38.466826	157.230758	-0.721953	0.303025	-0.622061	-0.422812	-0.904841	0.049933	-0.547736	0.299064	0.781375			
65373						-6.760969	9.837386	6.587922	-2.832717	-8.964334	0.061555	0.556549	-0.855757	0.500569	-0.195560	0.312082	-0.097048	-0.924631	4.175200	37.957641	157.552238	-0.728722	0.301068	-0.615079	-0.422216	-0.904676	0.057405	-0.539164	0.301529	0.786373			
65374						-6.489328	10.163497	7.203280	-3.411886	-9.011140	0.407525	-0.157556	-1.125800	-0.370161	-0.197453	0.307223	-0.094703	-0.926098	3.900185	37.332298	157.246446	-0.733252	0.307532	-0.606437	-0.423911	-0.904088	0.054084	-0.531639	0.296732	0.793290			
65375						-5.961261	0.136397	8.302122	-0.057728	0.445221	0.398926	-0.364764	-1.275898	-0.758575	-0.201007	0.302021	-0.090594	-0.927455	3.330820	36.629679	156.645693	-0.736760	0.318127	-0.596641	-0.427572	-0.902778	0.046627	-0.523801	0.289459	0.801153			
65376						-5.763986	0.694119	8.684318	-0.557046	-0.012203	0.618523	-0.532778	-1.297224	-0.698508	-0.203893	0.296863	-0.085832	-0.928942	2.718183	35.911664	156.122049	-0.740601	0.327848	-0.586537	-0.429769	-0.902121	0.038409	-0.516535	0.280522	0.809011			
65377						-5.214623	-2.548455	9.238286	0.227575	3.123744	0.638222	-0.426334	-1.143534	-0.548406	-0.206296	0.292209	-0.081877	-0.930243	2.230004	35.270188	155.701218	-0.744112	0.335960	-0.577433	-0.431661	-0.901476	0.031768	-0.509869	0.272895	0.815820			
65378						-4.716117	-2.360177	9.708551	-0.388375	3.160404	0.766932	-0.219602	-0.837294	-0.245574	-0.207335	0.288652	-0.079701	-0.931311	2.006984	34.799056	155.527208	-0.747384	0.340174	-0.570700	-0.432198	-0.901320	0.028758	-0.504601	0.268149	0.820655			
65379						-4.650246	-0.856385	9.979521	-1.165367	1.850061	1.011726	-0.060240	-0.537005	-0.036115	-0.207632	0.286222	-0.078819	-0.932069	1.951854	34.491813	155.489159	-0.749932	0.341935	-0.566288	-0.432174	-0.901353	0.028072	-0.500827	0.265788	0.823729			
65380						-5.327445	-0.389755	9.303833	-0.478433	0.999860	0.858122	0.023891	-0.333558	0.089607	-0.207265	0.284618	-0.078777	-0.932646	2.009058	34.301752	155.561301	-0.752068	0.341766	-0.563551	-0.431452	-0.901671	0.028960	-0.498240	0.264925	0.825573			
65381						-4.997257	0.055467	9.167729	-0.820370	0.674461	0.574562	0.093509	-0.195624	0.182133	-0.206628	0.283531	-0.079277	-0.933076	2.131891	34.185502	155.682579	-0.753830	0.340643	-0.561874	-0.430554	-0.902040	0.030773	-0.496351	0.265114	0.826650			
65382						-5.309819	0.391353	8.671741	-0.460829	0.146888	0.351585	0.119866	-0.087751	0.220866	-0.205690	0.282920	-0.080123	-0.933396	2.297654	34.132801	155.850514	-0.755296	0.338644	-0.561113	-0.429317	-0.902544	0.033185	-0.495191	0.265959	0.827074			
65383						-5.428293	1.266730	8.473953	-0.633400	-0.719097	0.284862	0.116921	-0.031937	0.211611	-0.204883	0.282560	-0.080942	-0.933612	2.447241	34.109021	155.995965	-0.756366	0.336820	-0.560769	-0.428304	-0.902943	0.035354	-0.494435	0.266920	0.827217			
65384						-5.572403	1.727550	8.273087	-0.611140	-1.221659	0.217971	0.061294	-0.013676	0.139628	-0.204210	0.282384	-0.081475	-0.933766	2.548908	34.099937	156.109611	-0.757114	0.335355	-0.560638	-0.427384	-0.903320	0.036826	-0.494086	0.267489	0.827242			
65385						-5.603878	1.219111	8.168549	-0.312060	-0.794126	0.131499	0.001567	-0.019558	0.075867	-0.203869	0.282255	-0.081577	-0.933871	2.579890	34.086311	156.161493	-0.757540	0.334723	-0.560441	-0.426825	-0.903565	0.037279	-0.493917	0.267451	0.827355			
65386						-5.638102	0.877813	8.025118	-0.065073	-0.532769	0.019565	-0.028310	-0.033088	0.054618	-0.203472	0.282114	-0.081553	-0.934002	2.597163	34.068078	156.216124	-0.758022	0.334073	-0.560178	-0.426101	-0.903896	0.037536	-0.493803	0.267146	0.827522			
65387						-5.700752	0.846584	8.002452	0.010775	-0.533754	0.034622	-0.048713	-0.045399	0.036228	-0.203255	0.281931	-0.081338	-0.934123	2.583507	34.040658	156.239800	-0.758405	0.333867	-0.559781	-0.425594	-0.904143	0.037351	-0.493652	0.266567	0.827798			
65388						-5.592742	0.571485	8.041683	0.030912	-0.241121	-0.003767	-0.056274	-0.056782	0.029078	-0.202948	0.281718	-0.081123	-0.934273	2.574498	34.009511	156.276081	-0.758895	0.333509	-0.559331	-0.424925	-0.904462	0.037235	-0.493475	0.265931	0.828108			
65389						-5.600185	0.533519	8.025791	0.064957	-0.218058	-0.014306	-0.052806	-0.056232	0.041876	-0.202703	0.281486	-0.080886	-0.934417	2.560471	33.975745	156.303333	-0.759355	0.333281	-0.558842	-0.424354	-0.904738	0.037047	-0.493259	0.265278	0.828446			
65390						-5.527612	0.343213	8.056398	0.080516	-0.015229	-0.036639	-0.043110	-0.053336	0.053567	-0.202299	0.281265	-0.080771	-0.934581	2.568439	33.945931	156.356493	-0.759930	0.332693	-0.558410	-0.423565	-0.905103	0.037175	-0.493051	0.264774	0.828732			
65391						-5.528670	0.444600	8.093429	0.025299	-0.099000	-0.001621	-0.029249	-0.047410	0.078392	-0.201912	0.281036	-0.080704	-0.934739	2.582089	33.916262	156.409201	-0.760501	0.332109	-0.557981	-0.422832	-0.905437	0.037386	-0.492800	0.264364	0.829011			
65392						-5.561634	0.387572	8.075192	0.088982	-0.060285	-0.000493	-0.013126	-0.030959	0.094366	-0.201352	0.280873	-0.080809	-0.934900	2.623174	33.898145	156.490951	-0.761135	0.331094	-0.557718	-0.421882	-0.905854	0.037988	-0.492634	0.264206	0.829161			
65393						-5.484412	0.344254	8.056728	0.062560	0.003318	-0.060548	0.004792	-0.021480	0.109211	-0.200859	0.280717	-0.080971	-0.935039	2.668572	33.882439	156.565681	-0.761707	0.330162	-0.557491	-0.421081	-0.906199	0.038652	-0.492436	0.264190	0.829283			
65394						-5.426840	0.536528	8.113266	-0.084979	-0.129600	-0.038256	0.013384	-0.009201	0.122307	-0.200198	0.280618	-0.081260	-0.935185	2.735815	33.875893	156.667125	-0.762349	0.328838	-0.557396	-0.420050	-0.906635	0.039628	-0.492323	0.264345	0.829301			
65395						-5.401908	0.568975	8.114249	-0.114198	-0.143432	-0.049913	0.021632	0.010039	0.118658	-0.199671	0.280589	-0.081545	-0.935282	2.795038	33.877826	156.749382	-0.762803	0.327736	-0.557424	-0.419258	-0.906964	0.040485	-0.492295	0.264586	0.829240			
65396						-5.447112	0.600668	8.037381	-0.052051	-0.197878	-0.086977	0.022638	0.016443	0.113567	-0.199054	0.280603	-0.081891	-0.935379	2.864660	33.885971	156.845546	-0.763279	0.326424	-0.557542	-0.418339	-0.907343	0.041488	-0.492339	0.264909	0.829111			
65397						-5.414913	0.600483	8.030004	-0.070559	-0.181267	-0.110884	0.021586	0.019473	0.115105	-0.198539	0.280619	-0.082180	-0.935458	2.922703	33.893244	156.925716	-0.763670	0.325328	-0.557647	-0.417573	-0.907657	0.042325	-0.492383	0.265181	0.828998			
65398						-5.402332	0.694511	7.985345	-0.094822	-0.265181	-0.150703	0.014931	0.015440	0.113793	-0.197912	0.280636	-0.082489	-0.935559	2.987981	33.900605	157.021940	-0.764149	0.324017	-0.557754	-0.416615	-0.908053	0.043265	-0.492451	0.265430	0.828878			
65399						-5.335560	0.778115	8.047073	-0.208815	-0.296106	-0.132927	0.010854	0.017294	0.112648	-0.197394	0.280653	-0.082723	-0.935642	3.038926	33.906557	157.100385	-0.764539	0.322948	-0.557840	-0.415813	-0.908385	0.043999	-0.492524	0.265596	0.828781			
65400						-5.416523	0.621594	8.027311	-0.069544	-0.177667	-0.110810	-0.000318	0.006315	0.103608	-0.196796	0.280646	-0.082937	-0.935751	3.091394	33.908805	157.189246	-0.765018	0.321753	-0.557873	-0.414857	-0.908785	0.044757	-0.492586	0.265677	0.828719			
65401						-5.334754	0.663204	8.123421	-0.194370	-0.158304	-0.074794	0.001268	0.008871	0.105467	-0.196302	0.280636	-0.083107	-0.935843	3.133928	33.910040	157.262457	-0.765418	0.320771	-0.557891	-0.414062	-0.909117	0.045372	-0.492634	0.265729	0.828673			
65402						-5.262019	0.909803	8.186509	-0.381811	-0.335793	-0.051695	-0.010220	0.028870	0.091271	-0.195740	0.280748	-0.083280	-0.935912	3.176440	33.925410	157.343597	-0.765733	0.319629	-0.558113	-0.413151	-0.909501	0.045978	-0.492909	0.265792	0.828490			
65403						-5.408135	1.083249	8.150621	-0.325364	-0.546655	0.008172	-0.036943	0.042204	0.059271	-0.195394	0.280951	-0.083239	-0.935927	3.180058	33.947105	157.386272	-0.765776	0.318977	-0.558427	-0.412521	-0.909785	0.046019	-0.493370	0.265603	0.828276			
65404						-5.445273	1.043516	8.117188	-0.267773	-0.529399	-0.000618	-0.063728	0.052387	0.030577	-0.195030	0.281249	-0.083099	-0.935926	3.169169	33.977726	157.426592	-0.765724	0.318323	-0.558871	-0.411809	-0.910116	0.045845	-0.494044	0.265253	0.827987			
65405						-5.571547	0.331698	8.041177	0.153937	0.056535	-0.025666	-0.071513	0.050633	0.026446	-0.194785	0.281539	-0.082858	-0.935911	3.140544	34.005284	157.446970	-0.765589	0.317948	-0.559269	-0.411259	-0.910386	0.045416	-0.494711	0.264775	0.827741			
65406						-5.662576	0.048103	8.054916	0.328448	0.291290	0.023776	-0.043308	0.052508	0.060008	-0.194312	0.281806	-0.082855	-0.935929	3.152726	34.035020	157.507545	-0.765657	0.317027	-0.559700	-0.410423	-0.910755	0.045576	-0.495300	0.264610	0.827441			
65407						-5.641429	0.415938	8.074563	0.147310	-0.027958	0.045041	-0.019519	0.064142	0.086648	-0.193854	0.282082	-0.082955	-0.935932	3.177490	34.068390	157.570044	-0.765701	0.316067	-0.560182	-0.409669	-0.911078	0.045916	-0.495857	0.264647	0.827096			
65408						-5.638230	0.509034	8.087105	0.097046	-0.101054	0.057996	-0.009736	0.062035	0.079861	-0.193333	0.282353	-0.083146	-0.935941	3.216717	34.102921	157.644464	-0.765798	0.314944	-0.560681	-0.408850	-0.911418	0.046463	-0.496382	0.264816	0.826727			
65409						-5.680860	0.533886	7.948046	0.185021	-0.167985	-0.031778	-0.011373	0.063429	0.085488	-0.192892	0.282619	-0.083282	-0.935940	3.245803	34.135852	157.706245	-0.765839	0.313996	-0.561157	-0.408144	-0.911714	0.046865	-0.496899	0.264924	0.826382			
65410						-5.397809	0.901362	8.105736	-0.263334	-0.365854	-0.042910	-0.022773	0.057236	0.067480	-0.192414	0.282885	-0.083389	-0.935948	3.272692	34.167987	157.771854	-0.765907	0.313000	-0.561621	-0.407358	-0.912046	0.047234	-0.497440	0.264958	0.826045			
65411						-5.555680	0.684573	8.168206	-0.090181	-0.197640	0.087142	-0.036290	0.076236	0.052166	-0.192087	0.283248	-0.083374	-0.935907	3.274949	34.209289	157.811194	-0.765746	0.312321	-0.562217	-0.406783	-0.912303	0.047244	-0.498157	0.264877	0.825639			
65412						-5.573980	0.897908	8.091146	-0.130923	-0.414291	0.043953	-0.042168	0.080248	0.040163	-0.191700	0.283651	-0.083374	-0.935864	3.280712	34.255399	157.858871	-0.765587	0.311513	-0.562883	-0.406109	-0.912600	0.047301	-0.498952	0.264805	0.825182			
65413						-5.679411	0.752810	8.044058	0.024972	-0.326180	0.057585	-0.056478	0.073754	0.023867	-0.191478	0.284033	-0.083221	-0.935807	3.260389	34.296199	157.878577	-0.765322	0.311098	-0.563471	-0.405649	-0.912821	0.046985	-0.499731	0.264531	0.824798			
65414						-5.725265	0.836413	8.091773	-0.004868	-0.403331	0.126746	-0.070603	0.068903	0.016372	-0.191167	0.284420	-0.083043	-0.935769	3.240389	34.336577	157.909341	-0.765121	0.310538	-0.564053	-0.405015	-0.913118	0.046675	-0.500553	0.264162	0.824418			
65415						-5.725528	1.066602	8.177248	-0.148886	-0.594040	0.207873	-0.098590	0.070379	0.006748	-0.190967	0.284834	-0.082666	-0.935718	3.189180	34.376004	157.917038	-0.764803	0.310289	-0.564621	-0.404474	-0.913396	0.045917	-0.501476	0.263492	0.824072			
65416						-5.792827	1.419893	8.109826	-0.215037	-0.961355	0.205883	-0.147853	0.049477	-0.030280	-0.190771	0.285222	-0.082042	-0.935694	3.106274	34.406735	157.914714	-0.764509	0.310206	-0.565064	-0.403807	-0.913751	0.044708	-0.502459	0.262356	0.823835			
65417						-5.744903	1.101845	8.129913	-0.143434	-0.663935	0.179912	-0.179889	0.042413	-0.075906	-0.190853	0.285616	-0.081140	-0.935636	2.975431	34.432685	157.863928	-0.763997	0.310787	-0.565438	-0.403487	-0.913983	0.042813	-0.503495	0.260856	0.823679			
65418						-5.627279	0.738170	8.089117	-0.076662	-0.321418	0.063331	-0.202060	0.026971	-0.100802	-0.190917	0.285979	-0.080140	-0.935598	2.833405	34.452502	157.811940	-0.763534	0.311407	-0.565723	-0.403080	-0.914256	0.040761	-0.504522	0.259154	0.823587			
65419						-5.605059	0.165685	8.206704	0.066985	0.220906	0.124154	-0.173780	0.026984	-0.116298	-0.191202	0.286311	-0.079194	-0.935519	2.689778	34.470526	157.732439	-0.762936	0.312398	-0.565982	-0.403095	-0.914340	0.038688	-0.505414	0.257661	0.823509			
65420						-5.480732	-0.773279	8.609470	0.135769	1.210393	0.349785	-0.124413	0.071618	-0.046663	-0.191108	0.286785	-0.078677	-0.935437	2.614128	34.514210	157.719181	-0.762464	0.312411	-0.566611	-0.402665	-0.914576	0.037581	-0.506467	0.256809	0.823128			
65421						-5.347906	-0.389690	8.951586	-0.311555	0.986452	0.570599	-0.130334	0.226907	0.099630	-0.190366	0.287925	-0.078434	-0.935258	2.583936	34.640859	157.795936	-0.761721	0.310915	-0.568431	-0.401248	-0.915218	0.037091	-0.508706	0.256335	0.821895			
65422						-5.467885	-0.411682	8.753379	-0.143160	0.929324	0.473449	-0.188767	0.409436	0.241842	-0.188699	0.289925	-0.078351	-0.934985	2.591469	34.870288	157.993567	-0.760672	0.307431	-0.571720	-0.398294	-0.916507	0.037096	-0.512582	0.255931	0.819609			
65423						-5.727336	0.147579	8.215601	0.060789	0.219095	0.200718	-0.227186	0.579892	0.367030	-0.186426	0.292698	-0.078374	-0.934575	2.620279	35.191993	158.268919	-0.759147	0.302578	-0.576318	-0.394338	-0.918206	0.037361	-0.517874	0.255627	0.816371			
65424						-6.205241	0.179356	7.615612	0.674431	-0.079133	-0.010985	-0.217973	0.537369	0.424269	-0.183813	0.295245	-0.078537	-0.934278	2.689814	35.489485	158.600061	-0.758087	0.297090	-0.580554	-0.389840	-0.920089	0.038211	-0.522809	0.255290	0.813325			
65425						-5.833952	1.127049	7.988542	-0.207016	-0.718617	0.115186	-0.172847	0.404818	0.436579	-0.181359	0.297115	-0.078753	-0.934147	2.778705	35.708580	158.921320	-0.757663	0.292034	-0.583663	-0.385629	-0.921814	0.039364	-0.526533	0.254902	0.811041			
65426						-5.132812	1.204232	8.417020	-1.018501	-0.457584	0.056223	-0.303623	0.323018	0.489792	-0.178393	0.298706	-0.078414	-0.934239	2.825593	35.880861	159.294071	-0.757902	0.286477	-0.586102	-0.380168	-0.924055	0.039941	-0.530148	0.253089	0.809252			
65427						-5.002708	0.698364	8.511702	-1.000600	0.075539	0.033982	-0.501305	0.323601	0.633659	-0.174555	0.300406	-0.077314	-0.934510	2.809230	36.047543	159.753733	-0.758573	0.279796	-0.588456	-0.372699	-0.927106	0.039627	-0.534474	0.249377	0.807557			
65428						-5.124921	-0.022771	8.462153	-0.647690	0.698315	0.034447	-0.713734	0.392866	0.854726	-0.169234	0.302527	-0.075663	-0.934940	2.777974	36.249228	160.389364	-0.759674	0.270667	-0.591299	-0.362228	-0.931270	0.039085	-0.540080	0.243877	0.805505			
65429						-5.730481	-0.352775	8.505344	-0.138355	0.850634	0.412810	-1.054668	0.409006	1.207200	-0.161835	0.304858	-0.072910	-0.935711	2.691492	36.449640	161.261443	-0.761743	0.258407	-0.594116	-0.347316	-0.936987	0.037772	-0.546919	0.235118	0.803492			
65430						-5.428261	-0.768249	8.511570	-0.284597	1.315397	0.221825	-1.400857	0.390250	1.649792	-0.151731	0.307192	-0.069239	-0.936919	2.608383	36.629604	162.465545	-0.765221	0.241779	-0.596640	-0.326858	-0.944368	0.036522	-0.554617	0.222964	0.801678			
65431						-5.541271	-0.974442	8.538155	-0.212197	1.479806	0.302649	-1.742348	0.373619	2.126970	-0.138947	0.309492	-0.064628	-0.938473	2.526138	36.788208	163.996526	-0.769818	0.220792	-0.598859	-0.300800	-0.953034	0.035298	-0.562939	0.207309	0.800076			
65432						-5.800457	-0.165380	8.625458	-0.364386	0.658370	0.555762	-2.085611	0.344823	2.593190	-0.123327	0.311669	-0.059139	-0.940295	2.461988	36.920682	165.877718	-0.775306	0.195064	-0.600709	-0.268791	-0.962586	0.034342	-0.571535	0.188091	0.798730			
65433						-5.979487	0.390111	8.309360	-0.227517	0.011252	0.429381	-2.450435	0.278257	3.008386	-0.105260	0.313533	-0.052475	-0.942265	2.360218	37.006789	168.041880	-0.781235	0.165460	-0.601910	-0.231271	-0.972333	0.032886	-0.579815	0.164896	0.797887			
65434						-6.561878	0.125322	7.659131	0.650434	0.066071	0.252538	-2.703160	0.217273	3.385371	-0.084900	0.315005	-0.045202	-0.944204	2.288781	37.051532	170.491010	-0.787128	0.131847	-0.602533	-0.188803	-0.981498	0.031873	-0.587182	0.138848	0.797457			
65435						-7.920922	0.714758	6.798701	2.123711	-0.757180	0.404455	-2.899114	0.171658	3.669713	-0.062948	0.316124	-0.037365	-0.945890	2.218374	37.066450	173.129035	-0.792206	0.095460	-0.602741	-0.142708	-0.989283	0.030887	-0.593333	0.110484	0.797339			
65436						-10.150244	0.990817	5.448380	4.701957	-1.227859	0.678881	-3.126207	0.111817	4.053795	-0.038705	0.316762	-0.029064	-0.947269	2.192869	37.039701	176.055074	-0.796327	0.054915	-0.602368	-0.091741	-0.995314	0.030543	-0.597869	0.079584	0.797634			
65437						-13.241172	-0.880186	6.397673	6.800117	0.860199	3.227189	-3.103077	-0.143424	4.548729	-0.012255	0.315897	-0.021542	-0.948470	2.372256	36.853049	179.309934	-0.800118	0.009637	-0.599765	-0.036857	-0.998772	0.033121	-0.598709	0.048606	0.799491			
65438						-10.966742	-0.338827	6.031603	5.200532	0.700249	1.554739	-3.024894	-0.546727	4.821429	0.015410	0.312836	-0.014828	-0.949566	2.692558	36.417161	-177.254649	-0.803792	-0.038544	-0.593660	0.019988	-0.999085	0.037803	-0.594574	0.018520	0.803828			
65439						-7.988884	-0.310653	5.004271	3.454211	0.825646	-1.075200	-3.129457	-0.635234	4.828653	0.043174	0.309085	-0.007576	-0.950024	2.907769	35.917627	-173.853268	-0.805205	-0.086716	-0.586622	0.077350	-0.996157	0.041083	-0.587930	-0.012295	0.808819			
65440						-7.026240	-1.648206	4.209749	3.013847	2.295801	-2.366277	-3.126124	-0.397200	4.690332	0.070318	0.306223	-0.000119	-0.949359	3.050224	35.550087	-170.549682	-0.802566	-0.133588	-0.581414	0.133442	-0.990111	0.043293	-0.581448	-0.042839	0.812455			
65441						-7.337697	-2.475471	4.216538	3.029339	3.342131	-2.236581	-2.903469	-0.076492	4.462709	0.095921	0.304723	0.006793	-0.947574	3.204475	35.366079	-167.417686	-0.795886	-0.177644	-0.578798	0.185924	-0.981506	0.045584	-0.576192	-0.071332	0.814196			
65442						-7.825796	-2.482623	4.737833	2.949332	3.574969	-1.544092	-2.604218	0.176260	4.150520	0.119572	0.304364	0.012829	-0.944934	3.411039	35.329376	-164.489705	-0.786130	-0.218165	-0.578276	0.233784	-0.971076	0.048541	-0.572140	-0.097032	0.814396			
65443						-8.116504	-2.395064	5.410780	2.636123	3.641743	-0.830773	-2.300081	0.352216	3.753082	0.140752	0.304815	0.018182	-0.941778	3.626438	35.398125	-161.842129	-0.774554	-0.254029	-0.579255	0.276198	-0.959717	0.051559	-0.569018	-0.120054	0.813515			
65444						-8.140562	-2.413656	5.782343	2.259805	3.744768	-0.517719	-1.987917	0.476246	3.290098	0.159244	0.305912	0.022801	-0.938370	3.850482	35.547674	-159.502249	-0.762118	-0.284910	-0.581380	0.312811	-0.948243	0.054638	-0.566856	-0.140221	0.811795			
65445						-8.257961	-2.325668	6.093198	2.029909	3.743073	-0.190015	-1.701856	0.553692	2.797100	0.174886	0.307428	0.026936	-0.934975	4.039007	35.753221	-157.507350	-0.749806	-0.310467	-0.584295	0.343590	-0.937378	0.057161	-0.565453	-0.157898	0.809526			
65446						-8.300616	-2.126690	6.510675	1.740190	3.568746	0.189604	-1.413532	0.570448	2.270487	0.187607	0.309154	0.030493	-0.931825	4.193623	35.986562	-155.870701	-0.738455	-0.330780	-0.587595	0.368488	-0.927748	0.059171	-0.564713	-0.172827	0.806988			
65447						-8.146027	-2.089781	6.877802	1.303374	3.455922	0.404247	-1.121576	0.541795	1.731537	0.197316	0.310868	0.033538	-0.929141	4.290516	36.222044	-154.617253	-0.728855	-0.345817	-0.590916	0.387521	-0.919883	0.060355	-0.564445	-0.185003	0.804472			
65448						-7.878919	-2.023224	7.210994	0.844128	3.254451	0.524846	-0.787182	0.472339	1.191345	0.204005	0.312501	0.035754	-0.927064	4.363829	36.441703	-153.742036	-0.721450	-0.355905	-0.594005	0.400597	-0.914207	0.061211	-0.564829	-0.193796	0.802130			
65449						-7.442267	-1.836031	7.339719	0.459312	2.900909	0.385513	-0.464686	0.394820	0.668828	0.207760	0.313970	0.037255	-0.925673	4.394708	36.637281	-153.244506	-0.716518	-0.361241	-0.596747	0.408029	-0.910896	0.061488	-0.565786	-0.199433	0.800070			
65450						-6.898590	-1.409769	7.422361	0.151815	2.288915	0.157626	-0.188677	0.309835	0.182038	0.208846	0.315269	0.038113	-0.924952	4.382448	36.808112	-153.094087	-0.713977	-0.362314	-0.599137	0.410377	-0.909861	0.061180	-0.567298	-0.202191	0.798306			
65451						-6.309588	-0.963053	7.300803	-0.038447	1.675322	-0.261151	0.028798	0.236536	-0.265924	0.207527	0.316338	0.038636	-0.924862	4.293841	36.954059	-153.270737	-0.713726	-0.359423	-0.601174	0.408312	-0.910880	0.059831	-0.569102	-0.202764	0.796875			
65452						-6.055127	-0.874522	7.362452	-0.226930	1.467749	-0.355986	0.216070	0.184794	-0.644472	0.204169	0.317320	0.038799	-0.925266	4.153415	37.088995	-153.719275	-0.715246	-0.353197	-0.603055	0.402444	-0.913620	0.057775	-0.571369	-0.201372	0.795605			
65453						-6.199182	-0.820358	7.391916	-0.116549	1.438199	-0.238702	0.434115	0.126952	-0.925174	0.199173	0.318163	0.038378	-0.926083	4.006745	37.198554	-154.375622	-0.718204	-0.344481	-0.604579	0.393323	-0.917714	0.055658	-0.574004	-0.197821	0.794598			
65454						-6.078235	-0.052618	7.341010	0.133359	0.677397	-0.306825	0.577879	0.051705	-1.133806	0.192987	0.318785	0.037510	-0.927214	3.853907	37.275060	-155.184805	-0.722264	-0.333965	-0.605642	0.381796	-0.922698	0.053484	-0.576686	-0.192602	0.793938			
65455						-5.573367	0.583137	7.137160	0.133641	-0.067196	-0.739702	0.597444	0.011726	-1.309311	0.185959	0.319159	0.036828	-0.928548	3.627438	37.330000	-156.124860	-0.727114	-0.321835	-0.606405	0.368851	-0.928126	0.050308	-0.579011	-0.187093	0.793563			
65456						-5.273637	0.583015	6.953354	0.023807	-0.162438	-1.067790	0.604016	0.027519	-1.447689	0.178258	0.319603	0.036313	-0.929924	3.348945	37.398841	-157.163274	-0.732155	-0.308322	-0.607360	0.354745	-0.933811	0.046408	-0.581468	-0.181480	0.793070			
65457						-5.315589	0.610571	6.914653	0.087354	-0.205905	-1.072519	0.656167	0.054436	-1.543900	0.170016	0.320146	0.035766	-0.931301	3.051234	37.478663	-158.272947	-0.737202	-0.293772	-0.608466	0.339574	-0.939630	0.042241	-0.584142	-0.175478	0.792455			
65458						-5.575021	0.375340	7.056670	0.115991	0.027744	-0.812466	0.724106	0.043091	-1.593225	0.161420	0.320697	0.034935	-0.932672	2.773888	37.552483	-159.418723	-0.742195	-0.278696	-0.609488	0.323511	-0.945446	0.038367	-0.586931	-0.168700	0.791866			
65459						-5.859029	0.392730	7.043752	0.343626	0.054585	-0.648860	0.808917	0.008332	-1.602018	0.152645	0.321091	0.033728	-0.934057	2.533263	37.599052	-160.574859	-0.747200	-0.263499	-0.610132	0.306818	-0.951124	0.035019	-0.589539	-0.161033	0.791525			
65460						-6.469970	0.691102	6.972499	0.938046	-0.097362	-0.322466	0.825307	-0.045452	-1.579732	0.143939	0.321262	0.032329	-0.935429	2.315265	37.614312	-161.715901	-0.752144	-0.248516	-0.610343	0.290061	-0.956473	0.032001	-0.591729	-0.152968	0.791491			
65461						-6.864086	1.731248	6.702228	1.697940	-1.005106	-0.266001	0.721407	-0.099176	-1.525307	0.135658	0.321055	0.031323	-0.936771	2.055577	37.590164	-162.820420	-0.757041	-0.234048	-0.610009	0.274273	-0.961232	0.028422	-0.593012	-0.145792	0.791884			
65462						-6.472433	2.554893	6.498619	1.741641	-1.922152	-0.651709	0.417880	-0.087142	-1.393065	0.128466	0.320739	0.031497	-0.937886	1.686507	37.569720	-163.827365	-0.761246	-0.220768	-0.609726	0.261177	-0.965009	0.023327	-0.593541	-0.141489	0.792269			
65463						-5.836987	1.882971	6.363385	1.156562	-1.460763	-1.173425	0.096266	0.018173	-1.143850	0.122943	0.320696	0.032881	-0.938593	1.238879	37.596175	-164.653256	-0.764077	-0.209698	-0.610092	0.251878	-0.967607	0.017131	-0.593922	-0.140579	0.792145			
65464						-6.101039	0.307447	6.349837	0.965045	0.065589	-1.054730	0.028199	0.158027	-0.779381	0.119209	0.321362	0.034047	-0.938806	0.919056	37.698792	-165.212909	-0.765031	-0.201946	-0.611510	0.245711	-0.969260	0.012691	-0.595275	-0.140546	0.791135			
65465						-6.540208	0.510429	6.306613	1.365190	-0.074267	-0.816084	0.123886	0.256032	-0.461772	0.116800	0.322553	0.034350	-0.938689	0.787983	37.848736	-165.544308	-0.764634	-0.197117	-0.613579	0.241437	-0.970356	0.010859	-0.597530	-0.139837	0.789559			
65466						-6.714071	1.045545	6.302307	1.605079	-0.581996	-0.703577	0.111414	0.326397	-0.293258	0.115180	0.324139	0.034442	-0.938340	0.729913	38.041966	-165.752359	-0.763335	-0.193829	-0.616238	0.238485	-0.971094	0.010033	-0.600370	-0.139305	0.787496			
65467						-6.474953	0.212750	6.265752	1.214741	0.166639	-0.883721	0.039158	0.408908	-0.183576	0.114186	0.326043	0.034781	-0.937789	0.673233	38.276849	-165.881945	-0.761315	-0.191484	-0.619462	0.236845	-0.971504	0.009224	-0.603576	-0.139694	0.784973			
65468						-5.952920	-0.062432	6.252234	0.722300	0.320685	-1.215776	0.022928	0.499360	-0.089080	0.113635	0.328423	0.035053	-0.937015	0.655866	38.567873	-165.941125	-0.758451	-0.189931	-0.623441	0.235980	-0.971717	0.008950	-0.607508	-0.140332	0.781819			
65469						-5.531588	0.169171	6.210519	0.438556	0.007442	-1.505761	-0.016387	0.599276	-0.033486	0.113401	0.331210	0.035516	-0.936044	0.635474	38.910755	-165.960232	-0.754881	-0.188770	-0.628109	0.235822	-0.971758	0.008630	-0.611999	-0.141607	0.778077			
65470						-5.010999	0.292328	6.252589	-0.002379	-0.232109	-1.797933	-0.066126	0.698731	-0.016806	0.113297	0.334481	0.036198	-0.934867	0.600644	39.315654	-165.965457	-0.750573	-0.187620	-0.633592	0.236050	-0.971707	0.008110	-0.617188	-0.143472	0.773625			
65471						-4.047244	0.029505	6.043436	-0.713051	-0.144923	-2.575668	-0.057399	0.803152	0.001997	0.113257	0.338196	0.036908	-0.933506	0.573894	39.775122	-165.957325	-0.745593	-0.186487	-0.639776	0.236416	-0.971621	0.007698	-0.623056	-0.145514	0.768523			
65472						-2.741169	-0.043407	5.451936	-1.393162	-0.242745	-3.876412	0.119493	0.981348	0.043516	0.113066	0.342890	0.036781	-0.931821	0.675923	40.341415	-165.914899	-0.739285	-0.185491	-0.647341	0.235939	-0.971726	0.008992	-0.630706	-0.146086	0.762148			
65473						-5.306840	-5.191371	7.300038	-1.955458	4.980451	-0.881077	0.664413	1.145816	0.191251	0.112606	0.348627	0.033995	-0.929851	1.161100	40.995409	-165.756041	-0.731558	-0.185710	-0.655999	0.233116	-0.972329	0.015294	-0.640686	-0.141735	0.754607			
65474						-5.713896	-3.207583	13.797556	-5.460695	2.439085	4.241645	2.911291	0.333383	0.715561	0.110775	0.351937	0.019351	-0.929244	3.199338	41.174750	-165.201661	-0.727738	-0.192254	-0.658358	0.219495	-0.974709	0.042008	-0.649783	-0.113935	0.751532			
65475						-0.515111	20.369346	17.188298	-6.417656	-21.527789	4.538192	2.191257	-0.691347	0.630336	0.109908	0.349970	0.007667	-0.930259	4.745108	40.753891	-164.760394	-0.730882	-0.199119	-0.652811	0.209852	-0.975723	0.062664	-0.649441	-0.091193	0.754924			
65476						5.825386	15.824530	16.267527	-11.390249	-18.094086	-0.229308	-0.274313	-1.238563	0.662701	0.113535	0.344095	0.007051	-0.932019	4.867949	40.016348	-164.335860	-0.737418	-0.206781	-0.643006	0.216485	-0.974120	0.064991	-0.639804	-0.091276	0.763098			
65477						4.942199	8.477283	15.849828	-11.788243	-10.798666	-0.225319	-1.059142	-1.634285	1.207443	0.121034	0.335893	0.008971	-0.934048	4.766191	39.024479	-163.543677	-0.745053	-0.220077	-0.629652	0.232130	-0.970540	0.064551	-0.625309	-0.098068	0.774191			
65478						-3.554527	-5.150226	8.777833	-3.984746	4.937666	-1.097755	-0.161899	-1.516434	0.587480	0.124188	0.328713	0.007763	-0.936197	4.893863	38.127144	-163.195345	-0.753050	-0.227426	-0.617409	0.237634	-0.969034	0.067109	-0.613552	-0.096181	0.783775			
65479						-11.672511	8.107228	7.241362	6.378409	-5.863048	3.579404	0.317232	-1.833294	-0.001687	0.123726	0.320310	0.005133	-0.939184	5.006331	37.080048	-163.310502	-0.764187	-0.229114	-0.602930	0.235691	-0.969331	0.069620	-0.600390	-0.088902	0.794750			
65480						-5.464270	1.881390	9.051777	-0.714267	-1.359075	0.816130	-0.282033	-1.888809	0.134056	0.124922	0.311242	0.005012	-0.942071	4.843749	35.992286	-163.318612	-0.775046	-0.232251	-0.587676	0.238490	-0.968739	0.068319	-0.585172	-0.087204	0.806207			
65481						-1.820436	-2.616369	13.159091	-6.834422	1.819746	1.732764	-0.187672	-1.371563	-0.000245	0.125245	0.304652	0.005029	-0.944180	4.690602	35.208469	-163.398643	-0.783001	-0.233443	-0.576553	0.239572	-0.968577	0.066815	-0.574033	-0.085810	0.814323			
65482						-4.354257	4.704071	10.038480	-1.169988	-4.395203	1.195091	-0.303403	-0.852269	0.265413	0.127057	0.300421	0.005465	-0.945290	4.605456	34.705590	-163.249669	-0.787207	-0.236927	-0.569360	0.243495	-0.967653	0.066009	-0.566582	-0.086674	0.819434			
65483						-2.996771	0.936181	10.725836	-3.462086	-1.129358	0.753241	-0.218993	-0.482910	0.043128	0.127603	0.297996	0.006119	-0.945980	4.483088	34.427111	-163.245907	-0.789832	-0.237774	-0.565357	0.245068	-0.967360	0.064474	-0.562234	-0.087627	0.822322			
65484						-4.847577	-1.166234	9.373072	-1.724305	1.460822	0.560661	-0.058479	-0.058124	0.087621	0.128193	0.297658	0.006168	-0.946006	4.492805	34.385265	-163.174958	-0.789932	-0.238871	-0.564755	0.246215	-0.967057	0.064646	-0.561592	-0.087985	0.822723			
65485						-5.886096	-0.232605	8.054262	0.066351	0.931044	0.122105	0.097764	0.008669	0.178444	0.128893	0.297763	0.005436	-0.945883	4.620071	34.381385	-163.050506	-0.789448	-0.240598	-0.564699	0.247072	-0.966714	0.066476	-0.561896	-0.087042	0.822615			
65486						-5.723187	0.103433	7.839067	0.136767	0.610365	-0.126346	0.218372	-0.024240	0.206078	0.129627	0.297766	0.004023	-0.945789	4.835099	34.353027	-162.896355	-0.789065	-0.242803	-0.564290	0.247595	-0.966361	0.069586	-0.562204	-0.084807	0.822639			
65487						-5.715595	1.006728	7.890426	0.322242	-0.236362	-0.025935	0.297368	-0.072274	0.201995	0.130142	0.297616	0.002260	-0.945771	5.083008	34.301049	-162.760588	-0.788976	-0.244824	-0.563541	0.247514	-0.966116	0.073190	-0.562365	-0.081739	0.822839			
65488						-5.375581	1.409644	8.336981	-0.100249	-0.708158	0.181190	0.325114	-0.052014	0.149538	0.130448	0.297555	0.000409	-0.945750	5.335690	34.258885	-162.647896	-0.788888	-0.246499	-0.562933	0.246985	-0.965966	0.076857	-0.562720	-0.078405	0.822921			
65489						-5.460932	1.372698	8.225046	0.011836	-0.608482	0.136533	0.359872	0.035745	0.092631	0.130351	0.297954	-0.001417	-0.945637	5.580443	34.273497	-162.581124	-0.788464	-0.247375	-0.563144	0.245686	-0.966013	0.080358	-0.563883	-0.074997	0.822442			
65490						-5.348726	1.489110	8.135093	-0.010851	-0.709208	0.010900	0.346269	0.045704	0.071611	0.130257	0.298368	-0.003189	-0.945516	5.818616	34.290702	-162.515767	-0.788019	-0.248223	-0.563392	0.244418	-0.966046	0.083759	-0.565053	-0.071699	0.821933			
65491						-5.354035	0.913314	8.337309	-0.274334	-0.135682	0.133005	0.317638	0.025877	0.112397	0.130316	0.298690	-0.004851	-0.945399	6.046580	34.298057	-162.435890	-0.787604	-0.249300	-0.563498	0.243504	-0.965988	0.087021	-0.566027	-0.068676	0.821521			
65492						-5.257052	1.346753	8.326186	-0.248637	-0.545400	0.107814	0.296524	0.005980	0.135131	0.130596	0.298880	-0.006508	-0.945290	6.279402	34.288304	-162.329450	-0.787231	-0.250792	-0.563357	0.243011	-0.965805	0.090369	-0.566757	-0.065761	0.821256			
65493						-5.337141	1.532530	8.254940	-0.108892	-0.670216	0.112867	0.278238	0.005826	0.121696	0.130756	0.299081	-0.008011	-0.945193	6.487558	34.283124	-162.244640	-0.786907	-0.251972	-0.563283	0.242388	-0.965677	0.093357	-0.567473	-0.063069	0.820973			
65494						-5.570439	1.301242	8.209444	0.036794	-0.355480	0.186823	0.281215	-0.005131	0.095036	0.130869	0.299208	-0.009543	-0.945123	6.695545	34.269006	-162.166677	-0.786696	-0.253085	-0.563079	0.241663	-0.965565	0.096353	-0.568075	-0.060275	0.820767			
65495						-5.645355	1.368145	8.052966	0.194089	-0.363946	0.108095	0.292970	-0.022273	0.075481	0.130788	0.299286	-0.011065	-0.945093	6.892867	34.250464	-162.116048	-0.786645	-0.253836	-0.562812	0.240589	-0.965544	0.099201	-0.568600	-0.057370	0.820611			
65496						-5.406375	1.484937	8.056038	0.028086	-0.510190	-0.011027	0.253174	-0.038301	0.064399	0.130795	0.299239	-0.012441	-0.945089	7.071277	34.219258	-162.062113	-0.786697	-0.254671	-0.562361	0.239779	-0.965476	0.101794	-0.568870	-0.054762	0.820602			
65497						-5.273295	1.238288	8.079360	-0.151045	-0.284339	-0.090890	0.211262	-0.054484	0.069438	0.130805	0.299111	-0.013589	-0.945113	7.217752	34.182573	-162.018575	-0.786846	-0.255380	-0.561832	0.239121	-0.965411	0.103936	-0.568942	-0.052564	0.820696			
65498						-5.237300	1.394239	8.082270	-0.143660	-0.422800	-0.091736	0.178519	-0.053064	0.060060	0.130902	0.298945	-0.014615	-0.945136	7.350836	34.143078	-161.969129	-0.786993	-0.256178	-0.561261	0.238702	-0.965302	0.105892	-0.568914	-0.050638	0.820836			
65499						-5.442897	1.321082	8.197792	-0.064777	-0.288044	0.111374	0.156339	-0.049611	0.044428	0.130876	0.298805	-0.015463	-0.945171	7.456279	34.110840	-161.942551	-0.787174	-0.256641	-0.560796	0.238160	-0.965265	0.107443	-0.568891	-0.048982	0.820953			
65500						-5.772994	1.175282	8.056582	0.241646	-0.037362	0.165161	0.185114	-0.059268	0.027321	0.130808	0.298616	-0.016476	-0.945223	7.580082	34.070114	-161.916342	-0.787436	-0.257125	-0.560207	0.237445	-0.965236	0.109269	-0.568828	-0.046976	0.821114			
65501						-5.440863	1.383677	7.986360	0.070979	-0.303899	-0.055532	0.170932	-0.069820	0.018541	0.130636	0.298391	-0.017367	-0.945302	7.682787	34.028277	-161.909532	-0.787794	-0.257346	-0.559602	0.236617	-0.965265	0.110796	-0.568677	-0.045127	0.821322			
65502						-5.223119	1.510604	8.001138	-0.076271	-0.466538	-0.150513	0.164522	-0.076385	-0.002179	0.130457	0.298111	-0.018250	-0.945398	7.782464	33.980121	-161.905416	-0.788222	-0.257548	-0.558905	0.235786	-0.965296	0.112288	-0.568429	-0.043274	0.821594			
65503						-5.131202	1.501602	7.954712	-0.121356	-0.468054	-0.240452	0.097579	-0.066962	-0.012611	0.130247	0.297854	-0.018746	-0.945498	7.831286	33.942307	-161.919810	-0.788637	-0.257465	-0.558358	0.235130	-0.965368	0.113038	-0.568124	-0.042140	0.821863			
65504						-5.177908	1.230346	7.986997	-0.162730	-0.187835	-0.218166	0.055712	-0.053527	-0.029330	0.130104	0.297613	-0.019060	-0.945588	7.859443	33.909226	-161.932181	-0.788999	-0.257394	-0.557879	0.234705	-0.965419	0.113486	-0.567798	-0.041396	0.822127			
65505						-5.188853	0.899853	8.057610	-0.268000	0.134582	-0.191406	0.039907	-0.049280	-0.031198	0.129894	0.297404	-0.019244	-0.945679	7.869062	33.882911	-161.957638	-0.789357	-0.257123	-0.557498	0.234230	-0.965514	0.113659	-0.567496	-0.040865	0.822361			
65506						-5.176684	0.928767	8.077001	-0.278218	0.105765	-0.178892	0.011716	-0.031357	-0.025123	0.129838	0.297238	-0.019341	-0.945737	7.874709	33.862080	-161.965137	-0.789583	-0.257082	-0.557196	0.234087	-0.965536	0.113768	-0.567240	-0.040603	0.822551			
65507						-5.309145	0.937529	8.032240	-0.143815	0.133805	-0.140858	0.015154	-0.022431	-0.021387	0.129714	0.297139	-0.019405	-0.945783	7.875317	33.850231	-161.981335	-0.789765	-0.256895	-0.557024	0.233830	-0.965595	0.113793	-0.567093	-0.040379	0.822664			
65508						-5.225685	0.967371	8.044725	-0.208141	0.085488	-0.173675	0.015081	-0.012601	-0.004430	0.129751	0.297062	-0.019536	-0.945800	7.891637	33.838424	-161.973061	-0.789837	-0.257044	-0.556853	0.233831	-0.965566	0.114043	-0.566992	-0.040134	0.822745			
65509						-5.211795	1.118123	8.034411	-0.177773	-0.061718	-0.172700	0.014747	0.001168	0.005187	0.129756	0.297072	-0.019623	-0.945794	7.903375	33.837875	-161.968858	-0.789824	-0.257104	-0.556845	0.233786	-0.965557	0.114212	-0.567030	-0.039975	0.822727			
65510						-5.113689	1.180186	7.951496	-0.194364	-0.141257	-0.288444	0.000302	0.016343	0.008894	0.129881	0.297120	-0.019684	-0.945761	7.917727	33.841436	-161.948842	-0.789701	-0.257369	-0.556896	0.233975	-0.965487	0.114413	-0.567123	-0.039947	0.822664			
65511						-4.950053	1.207286	7.988675	-0.340775	-0.211995	-0.345986	-0.019556	0.043875	0.000139	0.129917	0.297310	-0.019574	-0.945698	7.910155	33.865515	-161.944020	-0.789457	-0.257363	-0.557245	0.234085	-0.965477	0.114273	-0.567417	-0.040230	0.822447			
65512						-5.249372	1.262553	7.979310	-0.089617	-0.190098	-0.180701	-0.043922	0.056465	-0.005711	0.130042	0.297521	-0.019378	-0.945619	7.895678	33.892948	-161.930197	-0.789141	-0.257471	-0.557643	0.234410	-0.965427	0.114028	-0.567723	-0.040733	0.822212			
65513						-5.360410	1.250581	7.974938	-0.006127	-0.156156	-0.123871	-0.079530	0.061812	-0.013638	0.130104	0.297758	-0.018951	-0.945544	7.849431	33.928286	-161.933109	-0.788827	-0.257324	-0.558155	0.234752	-0.965428	0.113317	-0.568017	-0.041640	0.821963			
65514						-5.352948	1.207799	8.020867	-0.050561	-0.127212	-0.095260	-0.133291	0.057645	-0.007195	0.130355	0.297916	-0.018330	-0.945472	7.783190	33.956514	-161.920300	-0.788508	-0.257415	-0.558564	0.235572	-0.965343	0.112330	-0.568121	-0.043009	0.821820			
65515						-5.391698	1.289111	8.020640	-0.001916	-0.209787	-0.064927	-0.204497	0.063206	0.010503	0.130717	0.298075	-0.017348	-0.945391	7.674591	33.990772	-161.906654	-0.788129	-0.257499	-0.559059	0.236815	-0.965224	0.110727	-0.568130	-0.045127	0.821701			
65516						-5.482518	1.289939	8.068671	0.043674	-0.206328	0.025040	-0.271205	0.054125	0.030004	0.131348	0.298122	-0.016132	-0.945310	7.543297	34.014192	-161.868884	-0.787742	-0.257947	-0.559398	0.238711	-0.964975	0.108814	-0.567874	-0.047817	0.821726			
65517						-5.826003	0.913337	8.240561	0.130185	0.218204	0.317404	-0.265984	0.015653	0.050965	0.131989	0.298012	-0.014950	-0.945275	7.412504	34.018462	-161.831949	-0.787536	-0.258442	-0.559460	0.240621	-0.964711	0.106933	-0.567353	-0.050404	0.821931			
65518						-6.087269	0.478818	8.270447	0.218918	0.691907	0.441957	-0.154103	-0.008496	0.068712	0.132622	0.297837	-0.014386	-0.945250	7.359898	34.003584	-161.773484	-0.787409	-0.259291	-0.559245	0.242152	-0.964409	0.106196	-0.566876	-0.051802	0.822172			
65519						-5.682265	0.722542	8.144738	0.033102	0.356343	0.138136	-0.010839	-0.022153	0.066376	0.132952	0.297715	-0.014459	-0.945241	7.379305	33.985292	-161.729348	-0.787379	-0.259953	-0.558980	0.242735	-0.964229	0.106498	-0.566669	-0.051830	0.822314			
65520						-5.373571	1.264514	8.077834	-0.038788	-0.236553	-0.031675	0.029977	-0.018821	0.065933	0.133295	0.297614	-0.014767	-0.945220	7.430353	33.964857	-161.674062	-0.787317	-0.260776	-0.558684	0.243197	-0.964029	0.107256	-0.566558	-0.051425	0.822416			
65521						-5.431317	1.349841	8.051039	0.043647	-0.296037	-0.012128	0.029442	-0.022315	0.054538	0.133510	0.297519	-0.015012	-0.945216	7.468253	33.947295	-161.638090	-0.787316	-0.261324	-0.558430	0.243458	-0.963900	0.107822	-0.566447	-0.051064	0.822515			
65522						-5.387452	1.318805	8.053339	0.002058	-0.270996	-0.037887	0.017663	-0.024212	0.045922	0.133775	0.297385	-0.015236	-0.945216	7.504265	33.925239	-161.597085	-0.787332	-0.261955	-0.558111	0.243832	-0.963744	0.108367	-0.566263	-0.050764	0.822660			
65523						-5.394387	1.493271	8.056204	0.051309	-0.434328	-0.012666	-0.012508	-0.038332	0.025191	0.133913	0.297189	-0.015250	-0.945259	7.506075	33.900741	-161.582674	-0.787493	-0.262228	-0.557756	0.244100	-0.963670	0.108425	-0.565924	-0.050765	0.822893			
65524						-5.305057	1.312831	8.195900	-0.137502	-0.289486	0.032983	-0.038686	-0.037430	0.011479	0.134098	0.296958	-0.015165	-0.945306	7.495979	33.873747	-161.566475	-0.787668	-0.262534	-0.557365	0.244521	-0.963575	0.108314	-0.565499	-0.050972	0.823172			
65525						-5.265119	1.490424	8.293499	-0.177350	-0.478875	0.110225	-0.055622	-0.004433	-0.004779	0.134160	0.296894	-0.014908	-0.945321	7.463355	33.870742	-161.569509	-0.787709	-0.262502	-0.557321	0.244797	-0.963557	0.107849	-0.565322	-0.051477	0.823263			
65526						-5.316124	1.345725	8.369941	-0.214682	-0.334867	0.185804	-0.083394	0.030998	-0.016004	0.134288	0.296959	-0.014525	-0.945289	7.420594	33.884625	-161.565944	-0.787565	-0.262508	-0.557522	0.245254	-0.963512	0.107217	-0.565325	-0.052294	0.823209			
65527						-5.341444	1.206239	8.617327	-0.372008	-0.215865	0.388262	-0.083241	0.085586	-0.024075	0.134306	0.297304	-0.014049	-0.945185	7.369243	33.934182	-161.574176	-0.787145	-0.262242	-0.558240	0.245535	-0.963529	0.106417	-0.565788	-0.053302	0.822826			
65528						-5.353014	1.767479	8.685683	-0.272617	-0.767113	0.509959	-0.059862	0.147029	-0.068906	0.134157	0.297935	-0.013621	-0.945014	7.325380	34.017805	-161.596618	-0.786473	-0.261676	-0.559451	0.245444	-0.963633	0.105683	-0.566760	-0.054197	0.822099			
65529						-5.271918	2.763345	8.415375	0.046019	-1.749897	0.345236	-0.093228	0.208457	-0.144685	0.133629	0.298861	-0.012835	-0.944807	7.227866	34.145928	-161.676978	-0.785650	-0.260179	-0.561303	0.244836	-0.963957	0.104126	-0.568163	-0.055620	0.821034			
65530						-5.259255	2.923527	8.503819	0.006770	-1.937823	0.422857	-0.172321	0.249246	-0.220606	0.132939	0.299909	-0.011582	-0.944589	7.065759	34.298270	-161.795022	-0.784764	-0.258093	-0.563501	0.244199	-0.964386	0.101619	-0.569660	-0.057859	0.819841			
65531						-5.399192	2.189813	8.387516	-0.017642	-1.223572	0.326315	-0.221720	0.302221	-0.255648	0.132084	0.301197	-0.009961	-0.944317	6.854874	34.487050	-161.945114	-0.783668	-0.255459	-0.566220	0.243459	-0.964909	0.098379	-0.571482	-0.060755	0.818362			
65532						-5.555046	1.534968	8.279800	-0.016233	-0.583249	0.258515	-0.223515	0.316471	-0.241720	0.131377	0.302525	-0.008391	-0.944006	6.656948	34.678232	-162.073630	-0.782437	-0.253118	-0.568967	0.242964	-0.965339	0.095332	-0.573377	-0.063648	0.816816			
65533						-5.682046	0.578022	8.201430	-0.128796	0.343406	0.174733	-0.157004	0.313974	-0.171197	0.130822	0.303905	-0.007195	-0.943650	6.514989	34.867333	-162.166441	-0.781054	-0.251274	-0.571678	0.242528	-0.965668	0.093094	-0.575443	-0.065936	0.815179			
65534						-5.554758	0.293620	8.327301	-0.395685	0.556704	0.178255	-0.041505	0.304770	-0.089633	0.130554	0.305289	-0.006722	-0.943244	6.479615	35.041503	-162.191958	-0.779508	-0.250393	-0.574170	0.242185	-0.965821	0.092394	-0.577680	-0.067033	0.813506			
65535						-5.116142	0.130279	8.369839	-0.829405	0.590423	-0.055152	0.018749	0.294374	-0.036520	0.130366	0.306685	-0.006573	-0.942818	6.490471	35.210591	-162.193375	-0.777897	-0.249855	-0.576583	0.241792	-0.965923	0.092356	-0.580011	-0.067569	0.811802			
00000						-5.054497	0.601169	8.537682	-0.890810	0.103132	0.086660	0.027803	0.337547	-0.017552	0.130332	0.308265	-0.006513	-0.942308	6.524866	35.398697	-162.166269	-0.775973	-0.249642	-0.579263	0.241611	-0.965942	0.092628	-0.582658	-0.068079	0.809861			
00001						-5.257395	2.679721	8.566837	-0.280209	-1.874489	0.415676	-0.212329	0.398355	-0.059428	0.130395	0.309999	-0.005172	-0.941738	6.398745	35.628455	-162.175553	-0.773796	-0.248803	-0.582527	0.242390	-0.965941	0.090586	-0.585224	-0.071104	0.807748			
00002						-5.065333	5.079643	9.242201	-0.257660	-4.346020	1.046577	-0.838831	0.424336	-0.081027	0.131406	0.311416	-0.000876	-0.941144	5.913840	35.869779	-162.187451	-0.771505	-0.247889	-0.585945	0.246798	-0.965463	0.083493	-0.586405	-0.080195	0.806038			
00003						-4.624549	4.001278	9.889680	-1.232847	-3.579979	1.181150	-1.450438	0.484438	0.127226	0.134265	0.312728	0.006059	-0.940286	5.156346	36.138153	-162.063913	-0.768349	-0.248704	-0.589734	0.256284	-0.963873	0.072582	-0.586480	-0.095371	0.804329			
00004						-3.179941	-0.431417	9.722123	-3.376432	0.219743	-0.149977	-1.321466	0.427467	0.488500	0.138702	0.313820	0.011735	-0.939224	4.630043	36.352342	-161.677979	-0.764558	-0.253179	-0.592749	0.267909	-0.961248	0.065012	-0.586239	-0.109098	0.802759			
00005						-2.030809	2.335144	8.951132	-3.064402	-2.731365	-1.277542	-0.760596	0.387910	0.961829	0.144390	0.315159	0.014055	-0.937885	4.614446	36.528611	-160.972125	-0.759653	-0.261983	-0.595224	0.279702	-0.957908	0.064647	-0.587106	-0.117376	0.800955			
00006						-3.703533	3.996619	9.573800	-1.676361	-3.976224	0.322705	-0.530434	0.321840	1.393836	0.151834	0.316328	0.014521	-0.936308	4.923444	36.638964	-159.946885	-0.753766	-0.275140	-0.596771	0.293513	-0.953471	0.068867	-0.587952	-0.123251	0.799451			
00007						-3.801211	4.159098	9.255454	-1.327594	-4.050894	0.149149	-0.670779	0.122102	1.640325	0.160563	0.316492	0.015148	-0.934785	5.241177	36.624523	-158.771810	-0.748105	-0.290594	-0.596568	0.309772	-0.947980	0.073313	-0.586839	-0.129954	0.799207			
00008						-3.527404	2.608864	8.755920	-1.662017	-2.580120	-0.512403	-0.843771	-0.060779	1.803595	0.170433	0.315599	0.016128	-0.933322	5.529362	36.484759	-157.478891	-0.742700	-0.307957	-0.594609	0.328317	-0.941385	0.077472	-0.583614	-0.137682	0.800274			
00009						-3.199993	0.793300	8.235667	-2.154489	-0.893426	-1.253751	-0.839466	-0.151812	1.936511	0.180800	0.314309	0.016849	-0.931793	5.857003	36.287246	-156.117362	-0.737043	-0.326345	-0.591834	0.347528	-0.934055	0.082255	-0.579649	-0.145053	0.801852			
00010						-3.426110	0.202647	8.066684	-2.071649	-0.232237	-1.297701	-0.742364	-0.190204	2.002860	0.191417	0.312844	0.016927	-0.930162	6.268274	36.048596	-154.701523	-0.730976	-0.345507	-0.588471	0.366690	-0.926146	0.088277	-0.575511	-0.151258	0.803684			
00011						-4.089454	-0.026078	8.038102	-1.642980	0.236835	-0.948161	-0.686062	-0.205610	1.990702	0.201759	0.311377	0.016796	-0.928470	6.688097	35.801944	-153.317621	-0.724676	-0.364195	-0.584985	0.385114	-0.918022	0.094458	-0.571431	-0.156835	0.805525			
00012						-5.160447	-0.514987	7.974519	-1.018799	1.125949	-0.422134	-0.680344	-0.223386	1.935449	0.211927	0.309736	0.016658	-0.926754	7.087296	35.532103	-151.965122	-0.718301	-0.382489	-0.581159	0.403127	-0.909619	0.100407	-0.567038	-0.162159	0.807572			
00013						-6.178878	-0.788857	7.862180	-0.344610	1.833600	0.042950	-0.729181	-0.256122	1.845241	0.221621	0.307910	0.016896	-0.925089	7.402868	35.252266	-150.700484	-0.712151	-0.399633	-0.577177	0.420443	-0.901198	0.105217	-0.562199	-0.167739	0.809812			
00014						-7.045785	-0.905207	7.342079	0.504737	2.429578	0.097445	-0.832879	-0.312015	1.658778	0.230704	0.305606	0.017796	-0.923615	7.580276	34.941172	-149.561897	-0.706761	-0.415286	-0.572735	0.437040	-0.892918	0.108136	-0.556313	-0.173882	0.812577			
00015						-7.110170	-1.392089	6.459285	0.818814	3.090276	-0.647840	-0.929182	-0.324214	1.360199	0.238430	0.303142	0.019623	-0.922427	7.569107	34.653367	-148.650163	-0.702512	-0.427971	-0.568610	0.451765	-0.885532	0.108355	-0.549896	-0.180757	0.815439			
00016						-6.933878	-2.325532	5.577166	0.744820	4.025632	-1.576727	-0.897053	-0.234533	0.983180	0.244445	0.301019	0.021940	-0.921495	7.435421	34.437115	-147.979356	-0.699268	-0.437301	-0.565501	0.463719	-0.879530	0.106729	-0.544048	-0.187602	0.817812			
00017						-6.904273	-2.462961	5.071218	0.919508	4.231499	-2.021582	-0.718458	-0.072402	0.552595	0.248082	0.299860	0.024319	-0.920841	7.236488	34.354611	-147.604413	-0.697078	-0.442304	-0.564313	0.471473	-0.875727	0.103992	-0.540181	-0.193568	0.818985			
00018						-6.912861	-1.533384	4.723662	1.541722	3.474813	-2.196875	-0.552474	0.135570	0.075754	0.249335	0.299750	0.026873	-0.920467	6.962944	34.417671	-147.528050	-0.695964	-0.442899	-0.565221	0.475120	-0.874220	0.100005	-0.538420	-0.198948	0.818855			
00019						-6.993334	-0.691695	4.484546	2.123972	2.782711	-2.246889	-0.472135	0.341959	-0.404801	0.248136	0.300675	0.030068	-0.920391	6.551197	34.638594	-147.778812	-0.696046	-0.438683	-0.568398	0.474846	-0.875049	0.093869	-0.538555	-0.204564	0.817381			
00020						-6.659293	-0.372935	4.015205	2.296201	2.389533	-2.768243	-0.379833	0.521432	-0.810367	0.244979	0.302427	0.033638	-0.920539	6.042177	34.978799	-148.289607	-0.697046	-0.430679	-0.573273	0.471371	-0.877708	0.086247	-0.540311	-0.210107	0.814812			
00021						-6.443386	-4.532399	3.150796	0.659122	6.065220	-3.916453	0.154000	0.822789	-0.948013	0.240244	0.306233	0.035359	-0.920464	5.784415	35.502750	-148.890794	-0.697009	-0.420615	-0.580742	0.463927	-0.882066	0.082048	-0.546763	-0.212234	0.809942			
00022						-17.244951	1.672044	11.238726	6.540907	3.401564	9.478098	1.360450	0.904105	-0.278608	0.236782	0.311926	0.030571	-0.919621	6.495681	36.028257	-149.008082	-0.693273	-0.416427	-0.588184	0.454571	-0.886000	0.091490	-0.559230	-0.203944	0.803535			
00023						-10.507020	9.786972	6.547555	8.063375	-5.618974	2.534853	0.618852	-0.370119	-0.128777	0.235284	0.310930	0.027476	-0.920440	6.780793	35.825203	-149.128000	-0.695928	-0.416043	-0.585314	0.450216	-0.887773	0.095733	-0.559455	-0.196895	0.805135			
00024						-4.783805	2.996247	6.557256	1.018683	-1.954737	-1.446018	-0.081848	-0.190182	0.134106	0.236113	0.309949	0.027372	-0.920561	6.787259	35.702781	-149.040623	-0.696364	-0.417746	-0.583581	0.451681	-0.887002	0.095971	-0.557729	-0.196762	0.806364			
00025						-5.462447	-2.689567	9.690642	-2.811969	2.770570	0.929630	0.049631	-0.167545	0.171670	0.236854	0.309255	0.026669	-0.920625	6.878948	35.594815	-148.933634	-0.696523	-0.419612	-0.582049	0.452602	-0.886378	0.097393	-0.556783	-0.195600	0.807300			
00026						-4.383523	-1.919457	8.493810	-2.538988	1.884894	-0.590698	0.059674	-0.138590	-0.045125	0.236632	0.308653	0.026252	-0.920896	6.895340	35.513836	-148.967795	-0.697477	-0.419620	-0.580900	0.452032	-0.886633	0.097723	-0.556051	-0.194426	0.808088			
00027						-5.648748	3.135185	8.291179	0.751802	-2.019365	0.475089	-0.025535	-0.098209	0.021957	0.236789	0.308169	0.026209	-0.921019	6.886200	35.455510	-148.959881	-0.697926	-0.420021	-0.580071	0.452328	-0.886488	0.097665	-0.555247	-0.194220	0.808690			
00028						-5.920871	2.781301	8.105484	0.900327	-1.550229	0.447789	-0.088714	-0.175342	0.014266	0.237075	0.307228	0.026342	-0.921256	6.839761	35.349384	-148.955518	-0.698813	-0.420628	-0.578561	0.453000	-0.886203	0.097137	-0.553581	-0.194207	0.809834			
00029						-6.042366	0.749205	8.239860	0.011148	0.278940	0.428837	-0.071069	-0.198345	-0.018249	0.237131	0.306222	0.026451	-0.921573	6.783552	35.236827	-148.983878	-0.699994	-0.420867	-0.576957	0.453266	-0.886139	0.096476	-0.551868	-0.193982	0.811056			
00030						-5.886339	1.449715	7.772560	0.498213	-0.310396	0.026965	-0.037125	-0.209684	0.002932	0.237289	0.305183	0.026322	-0.921881	6.760783	35.111973	-148.990035	-0.701115	-0.421438	-0.575176	0.453570	-0.886002	0.096302	-0.550193	-0.193364	0.812341			
00031						-5.018703	2.101450	7.810808	0.182536	-1.255041	-0.378509	-0.031921	-0.177218	-0.023727	0.237256	0.304320	0.026284	-0.922176	6.726052	35.011775	-149.020215	-0.702198	-0.421586	-0.573745	0.453581	-0.886038	0.095927	-0.548801	-0.192880	0.813397			
00032						-4.721207	1.252269	8.114766	-0.562563	-0.685492	-0.382894	-0.068376	-0.124982	-0.106719	0.236945	0.303619	0.026564	-0.922479	6.646040	34.942427	-149.095309	-0.703345	-0.421022	-0.572753	0.453284	-0.886303	0.094871	-0.547576	-0.192892	0.814219			
00033						-5.432403	0.956127	7.947145	-0.089830	-0.097784	-0.139806	-0.090721	-0.103401	-0.143431	0.236439	0.303011	0.027067	-0.922794	6.533731	34.892045	-149.202272	-0.704562	-0.419966	-0.572032	0.452772	-0.886728	0.093333	-0.546433	-0.193241	0.814904			
00034						-5.838849	0.861619	7.631235	0.342537	0.212191	-0.173812	-0.076655	-0.135980	-0.100379	0.236171	0.302249	0.027363	-0.923103	6.451355	34.815728	-149.273378	-0.705737	-0.419480	-0.570939	0.452562	-0.886949	0.092246	-0.545089	-0.193284	0.815794			
00035						-5.741588	0.141898	7.912106	-0.188861	0.753935	-0.066750	-0.027865	-0.145832	-0.064543	0.235940	0.301529	0.027406	-0.923397	6.404783	34.735876	-149.328607	-0.706825	-0.419205	-0.569794	0.452260	-0.887162	0.091672	-0.543929	-0.192899	0.816658			
00036						-5.876230	0.584429	7.939306	0.105958	0.418071	0.072564	0.011063	-0.149486	-0.004913	0.235980	0.300822	0.027138	-0.923625	6.409903	34.645804	-149.334620	-0.707639	-0.419587	-0.568502	0.452242	-0.887154	0.091845	-0.542885	-0.192108	0.817539			
00037						-5.730923	1.191423	7.958285	0.280364	-0.176576	0.060886	0.016686	-0.161584	0.016756	0.236059	0.300093	0.026834	-0.923851	6.420316	34.551765	-149.334693	-0.708441	-0.420061	-0.567151	0.452272	-0.887112	0.092098	-0.541813	-0.191261	0.818449			
00038						-5.695065	1.504579	7.811213	0.491053	-0.431949	-0.051292	-0.011882	-0.177535	-0.004046	0.236140	0.299229	0.026638	-0.924116	6.411390	34.445771	-149.342441	-0.709399	-0.420500	-0.565626	0.452383	-0.887057	0.092087	-0.540465	-0.190553	0.819504			
00039						-5.656866	1.628008	7.891036	0.495930	-0.567600	0.003158	-0.070496	-0.219265	-0.034208	0.236121	0.298123	0.026745	-0.924475	6.349523	34.322129	-149.382051	-0.710738	-0.420630	-0.563845	0.452523	-0.887063	0.091337	-0.538585	-0.190236	0.820814			
